sent.seconds;sent.microseconds;received.seconds;received.microseconds;sampleTimeStamp.seconds;sampleTimeStamp.microseconds;accelerationX;accelerationY;accelerationZ;
1562328523;572458;1562328523;572473;1562328523;572403;-0.4293002;-0.05420542;-9.78578;
1562328523;572515;1562328523;572528;1562328523;577403;-0.4295701;-0.07537819;-9.784253;
1562328523;614838;1562328523;614854;1562328523;582403;-0.4285062;-0.06697012;-9.789053;
1562328523;614897;1562328523;614911;1562328523;587403;-0.4342175;-0.07496026;-9.782644;
1562328523;614951;1562328523;614964;1562328523;592403;-0.4286071;-0.06755025;-9.786785;
1562328523;615003;1562328523;615017;1562328523;597403;-0.4289391;-0.06826983;-9.806294;
1562328523;615057;1562328523;615070;1562328523;602403;-0.4247966;-0.05516671;-9.799779;
1562328523;615110;1562328523;615123;1562328523;607403;-0.4207359;-0.05677591;-9.801413;
1562328523;658422;1562328523;658434;1562328523;612403;-0.408602;-0.05204695;-9.806514;
1562328523;658474;1562328523;658486;1562328523;617403;-0.4019036;-0.04652596;-9.805126;
1562328523;658530;1562328523;658542;1562328523;622403;-0.4120305;-0.04798137;-9.813652;
1562328523;658580;1562328523;658591;1562328523;627403;-0.40518;-0.04273466;-9.797274;
1562328523;700891;1562328523;700912;1562328523;632403;-0.3837683;-0.04223295;-9.806679;
1562328523;700969;1562328523;700987;1562328523;637403;-0.3929388;-0.04407203;-9.80879;
1562328523;701043;1562328523;701061;1562328523;642403;-0.3928168;-0.0415797;-9.806653;
1562328523;701118;1562328523;701136;1562328523;647403;-0.3822408;-0.05088223;-9.812391;
1562328523;701189;1562328523;701207;1562328523;652403;-0.3871524;-0.05152328;-9.810843;
1562328523;744614;1562328523;744634;1562328523;657403;-0.398215;-0.05140304;-9.807363;
1562328523;744698;1562328523;744717;1562328523;662403;-0.4060812;-0.05865839;-9.812081;
1562328523;787035;1562328523;787053;1562328523;667403;-0.4139515;-0.05581792;-9.807024;
1562328523;787111;1562328523;787129;1562328523;672403;-0.4155903;-0.06548055;-9.80614;
1562328523;787183;1562328523;787195;1562328523;677403;-0.3976029;-0.04892811;-9.806168;
1562328523;787218;1562328523;787230;1562328523;682403;-0.3885821;-0.06107382;-9.794127;
1562328523;787250;1562328523;787262;1562328523;687403;-0.3933769;-0.05257876;-9.780237;
1562328523;787282;1562328523;787294;1562328523;692403;-0.3852013;-0.04963018;-9.789748;
1562328523;830665;1562328523;830684;1562328523;697403;-0.3919514;-0.03715624;-9.790037;
1562328523;830745;1562328523;830763;1562328523;702403;-0.3919887;-0.0455102;-9.772909;
1562328523;830816;1562328523;830834;1562328523;707403;-0.3910919;-0.03211786;-9.769143;
1562328523;830887;1562328523;830905;1562328523;712403;-0.4053808;-0.01614635;-9.770116;
1562328523;873196;1562328523;873214;1562328523;717403;-0.3908107;-0.03354758;-9.776945;
1562328523;873270;1562328523;873287;1562328523;722403;-0.3952139;-0.04269806;-9.779926;
1562328523;873352;1562328523;873369;1562328523;727403;-0.4076302;-0.03752122;-9.783245;
1562328523;873422;1562328523;873439;1562328523;732403;-0.4090584;-0.04858465;-9.792872;
1562328523;873492;1562328523;873509;1562328523;737403;-0.4112459;-0.04968256;-9.808182;
1562328523;916920;1562328523;916940;1562328523;742403;-0.4019778;-0.04635583;-9.817005;
1562328523;916995;1562328523;917014;1562328523;747403;-0.3984089;-0.04819503;-9.824308;
1562328523;917067;1562328523;917085;1562328523;752403;-0.4058823;-0.0639843;-9.827109;
1562328523;917165;1562328523;917186;1562328523;757403;-0.4097433;-0.06558383;-9.843373;
1562328523;959529;1562328523;959548;1562328523;762403;-0.4057722;-0.0768012;-9.836736;
1562328523;959602;1562328523;959621;1562328523;767403;-0.384931;-0.07073344;-9.831768;
1562328523;959675;1562328523;959693;1562328523;772403;-0.4078976;-0.0860307;-9.828066;
1562328523;959746;1562328523;959764;1562328523;777403;-0.405767;-0.08028975;-9.810293;
1562328523;959819;1562328523;959836;1562328523;782403;-0.3974907;-0.07563569;-9.810384;
1562328523;959888;1562328523;959906;1562328523;787403;-0.3824545;-0.06960967;-9.804997;
1562328523;959958;1562328523;959976;1562328523;792403;-0.3967845;-0.08496243;-9.793153;
1562328524;2276;1562328524;2296;1562328523;797403;-0.3820518;-0.0409838;-9.768732;
1562328524;2350;1562328524;2370;1562328523;802403;-0.3789142;-0.0548806;-9.779016;
1562328524;2423;1562328524;2441;1562328523;807403;-0.386088;-0.05688968;-9.791717;
1562328524;2499;1562328524;2518;1562328523;812403;-0.392307;-0.04702161;-9.789402;
1562328524;2571;1562328524;2590;1562328523;817403;-0.4032099;-0.06077322;-9.805211;
1562328524;45977;1562328524;45996;1562328523;822403;-0.3971972;-0.05833207;-9.794953;
1562328524;46049;1562328524;46067;1562328523;827403;-0.4112334;-0.05933383;-9.813169;
1562328524;46127;1562328524;46146;1562328523;832403;-0.4020963;-0.06822866;-9.819808;
1562328524;46198;1562328524;46217;1562328523;837403;-0.3948578;-0.06271456;-9.81301;
1562328524;88557;1562328524;88578;1562328523;842403;-0.4017606;-0.05683375;-9.824419;
1562328524;88641;1562328524;88659;1562328523;847403;-0.3983851;-0.05562237;-9.818306;
1562328524;88714;1562328524;88731;1562328523;852403;-0.4043672;-0.0527769;-9.829068;
1562328524;88784;1562328524;88801;1562328523;857403;-0.4104514;-0.05379686;-9.817868;
1562328524;88854;1562328524;88872;1562328523;862403;-0.3969659;-0.05201607;-9.805515;
1562328524;88924;1562328524;88943;1562328523;867403;-0.4012996;-0.03505812;-9.797142;
1562328524;131285;1562328524;131305;1562328523;872403;-0.4043953;-0.04339835;-9.784955;
1562328524;131358;1562328524;131377;1562328523;877403;-0.4181069;-0.04834682;-9.788912;
1562328524;131428;1562328524;131447;1562328523;882403;-0.4203303;-0.04325036;-9.783011;
1562328524;131499;1562328524;131518;1562328523;887403;-0.4102833;-0.03185633;-9.796631;
1562328524;174916;1562328524;174935;1562328523;892403;-0.4134746;-0.04751227;-9.800992;
1562328524;174989;1562328524;175008;1562328523;897403;-0.411418;-0.05625536;-9.808064;
1562328524;175063;1562328524;175081;1562328523;902403;-0.4081118;-0.05005344;-9.807041;
1562328524;175132;1562328524;175150;1562328523;907403;-0.4101774;-0.06089994;-9.817531;
1562328524;217471;1562328524;217484;1562328523;912403;-0.4119352;-0.04502171;-9.812061;
1562328524;217522;1562328524;217534;1562328523;917403;-0.4144317;-0.04650383;-9.818523;
1562328524;217571;1562328524;217583;1562328523;922403;-0.4183692;-0.03518287;-9.809255;
1562328524;217620;1562328524;217632;1562328523;927403;-0.400103;-0.03366969;-9.815953;
1562328524;260972;1562328524;260984;1562328523;932403;-0.3882944;-0.03045724;-9.805221;
1562328524;261021;1562328524;261032;1562328523;937403;-0.3875643;-0.03358828;-9.797238;
1562328524;261069;1562328524;261079;1562328523;942403;-0.3962059;-0.04646296;-9.79626;
1562328524;261135;1562328524;261146;1562328523;947403;-0.3913586;-0.03902294;-9.797133;
1562328524;303429;1562328524;303440;1562328523;952403;-0.393042;-0.05280801;-9.788708;
1562328524;303478;1562328524;303488;1562328523;957403;-0.4000594;-0.05577588;-9.805172;
1562328524;303524;1562328524;303535;1562328523;962403;-0.3900658;-0.04119134;-9.807596;
1562328524;303571;1562328524;303582;1562328523;967403;-0.3946713;-0.04937513;-9.808651;
1562328524;303619;1562328524;303629;1562328523;972403;-0.401375;-0.05114077;-9.799824;
1562328524;303666;1562328524;303676;1562328523;977403;-0.3940169;-0.04466354;-9.792809;
1562328524;347002;1562328524;347011;1562328523;982403;-0.3928045;-0.05408804;-9.809471;
1562328524;347040;1562328524;347048;1562328523;987403;-0.4132887;-0.05324506;-9.805126;
1562328524;347076;1562328524;347085;1562328523;992403;-0.4194432;-0.06540424;-9.80174;
1562328524;347127;1562328524;347154;1562328523;997403;-0.4120046;-0.05793553;-9.808505;
1562328524;389525;1562328524;389545;1562328524;2403;-0.4228128;-0.06941337;-9.805479;
1562328524;389601;1562328524;389619;1562328524;7403;-0.4124726;-0.0630167;-9.798985;
1562328524;389672;1562328524;389690;1562328524;12403;-0.4022474;-0.06724329;-9.795839;
1562328524;389743;1562328524;389761;1562328524;17403;-0.4027035;-0.05954096;-9.8137;
1562328524;389816;1562328524;389835;1562328524;22403;-0.4137159;-0.03827122;-9.805352;
1562328524;433215;1562328524;433234;1562328524;27403;-0.4053561;-0.04064429;-9.80716;
1562328524;433287;1562328524;433304;1562328524;32403;-0.4133184;-0.05298106;-9.794035;
1562328524;433355;1562328524;433372;1562328524;37403;-0.4033081;-0.05292377;-9.793633;
1562328524;433429;1562328524;433447;1562328524;42403;-0.4021637;-0.04480328;-9.813437;
1562328524;475789;1562328524;475809;1562328524;47403;-0.4026012;-0.05468221;-9.803521;
1562328524;475862;1562328524;475881;1562328524;52403;-0.4034382;-0.04101566;-9.802461;
1562328524;475933;1562328524;475951;1562328524;57403;-0.4022987;-0.03929378;-9.785407;
1562328524;476005;1562328524;476023;1562328524;62403;-0.3986762;-0.05789321;-9.779892;
1562328524;476075;1562328524;476094;1562328524;67403;-0.3933768;-0.04081733;-9.784595;
1562328524;476145;1562328524;476163;1562328524;72403;-0.3884773;-0.0393919;-9.787971;
1562328524;476215;1562328524;476233;1562328524;77403;-0.3882673;-0.05049349;-9.792533;
1562328524;518583;1562328524;518603;1562328524;82403;-0.4016084;-0.05275435;-9.789855;
1562328524;518660;1562328524;518677;1562328524;87403;-0.3915801;-0.04423318;-9.787134;
1562328524;518731;1562328524;518750;1562328524;92403;-0.385918;-0.04628655;-9.793992;
1562328524;518801;1562328524;518819;1562328524;97403;-0.3978601;-0.03727071;-9.792542;
1562328524;562198;1562328524;562218;1562328524;102403;-0.4105209;-0.06040606;-9.793709;
1562328524;562274;1562328524;562292;1562328524;107403;-0.4055212;-0.0744562;-9.792298;
1562328524;562343;1562328524;562361;1562328524;112403;-0.4029978;-0.06033715;-9.811592;
1562328524;562412;1562328524;562429;1562328524;117403;-0.4135254;-0.05381683;-9.819877;
1562328524;604795;1562328524;604814;1562328524;122403;-0.4072677;-0.04550987;-9.813334;
1562328524;604866;1562328524;604884;1562328524;127403;-0.419432;-0.04692855;-9.816347;
1562328524;604935;1562328524;604953;1562328524;132403;-0.4078515;-0.04140614;-9.806388;
1562328524;648325;1562328524;648345;1562328524;137403;-0.405165;-0.04261557;-9.806577;
1562328524;648411;1562328524;648429;1562328524;142403;-0.4222892;-0.03293785;-9.824121;
1562328524;648481;1562328524;648499;1562328524;147403;-0.4179742;-0.03394099;-9.823317;
1562328524;648550;1562328524;648568;1562328524;152403;-0.4055779;-0.03089127;-9.809392;
1562328524;648620;1562328524;648638;1562328524;157403;-0.4033071;-0.03612317;-9.803673;
1562328524;690973;1562328524;690994;1562328524;162403;-0.4236891;-0.03308678;-9.802851;
1562328524;691065;1562328524;691088;1562328524;167403;-0.4120981;-0.0312864;-9.808837;
1562328524;691147;1562328524;691167;1562328524;172403;-0.405746;-0.05268231;-9.79807;
1562328524;691222;1562328524;691239;1562328524;177403;-0.4028803;-0.07202885;-9.793639;
1562328524;734652;1562328524;734678;1562328524;182403;-0.4117996;-0.07166163;-9.78794;
1562328524;734742;1562328524;734760;1562328524;187403;-0.4069263;-0.0703462;-9.798584;
1562328524;734816;1562328524;734835;1562328524;192403;-0.4033127;-0.07091604;-9.795305;
1562328524;777178;1562328524;777193;1562328524;197403;-0.4040342;-0.06827272;-9.796319;
1562328524;777245;1562328524;777262;1562328524;202403;-0.4087044;-0.05812234;-9.805166;
1562328524;777312;1562328524;777331;1562328524;207403;-0.4173574;-0.04480361;-9.802685;
1562328524;777379;1562328524;777398;1562328524;212403;-0.4015137;-0.05197978;-9.802039;
1562328524;777445;1562328524;777463;1562328524;217403;-0.392643;-0.04530379;-9.802575;
1562328524;777510;1562328524;777527;1562328524;222403;-0.4099768;-0.04034644;-9.795927;
1562328524;819847;1562328524;819865;1562328524;227403;-0.402068;-0.05175237;-9.801492;
1562328524;819913;1562328524;819930;1562328524;232403;-0.4101494;-0.04721473;-9.797311;
1562328524;819975;1562328524;819992;1562328524;237403;-0.3921611;-0.03872813;-9.800081;
1562328524;820037;1562328524;820053;1562328524;242403;-0.4093208;-0.03148773;-9.802534;
1562328524;863420;1562328524;863440;1562328524;247403;-0.4043593;-0.04573407;-9.791188;
1562328524;863492;1562328524;863511;1562328524;252403;-0.4053649;-0.03526377;-9.791082;
1562328524;863562;1562328524;863580;1562328524;257403;-0.4107596;-0.03547157;-9.810772;
1562328524;863631;1562328524;863649;1562328524;262403;-0.4228461;-0.0450828;-9.818851;
1562328524;905931;1562328524;905940;1562328524;267403;-0.4130382;-0.04396369;-9.821483;
1562328524;905969;1562328524;905977;1562328524;272403;-0.4063403;-0.0362938;-9.806963;
1562328524;906005;1562328524;906013;1562328524;277403;-0.4287045;-0.05651012;-9.810328;
1562328524;906040;1562328524;906048;1562328524;282403;-0.4147525;-0.05786085;-9.817925;
1562328524;906077;1562328524;906085;1562328524;287403;-0.4369411;-0.06451608;-9.811383;
1562328524;949386;1562328524;949393;1562328524;292403;-0.4208168;-0.06003583;-9.798299;
1562328524;949416;1562328524;949424;1562328524;297403;-0.4095583;-0.0463637;-9.811502;
1562328524;949446;1562328524;949453;1562328524;302403;-0.4176542;-0.05783481;-9.811762;
1562328524;949482;1562328524;949489;1562328524;307403;-0.4011345;-0.05235014;-9.806005;
1562328524;992796;1562328524;992803;1562328524;312403;-0.3924418;-0.05072754;-9.807025;
1562328524;992834;1562328524;992845;1562328524;317403;-0.4065057;-0.03972159;-9.797646;
1562328524;992879;1562328524;992889;1562328524;322403;-0.4271441;-0.04068817;-9.820164;
1562328524;992924;1562328524;992933;1562328524;327403;-0.4059786;-0.04106164;-9.814341;
1562328525;35242;1562328525;35258;1562328524;332403;-0.400286;-0.03825298;-9.813046;
1562328525;35309;1562328525;35324;1562328524;337403;-0.4017856;-0.03814143;-9.801692;
1562328525;35375;1562328525;35390;1562328524;342403;-0.3993166;-0.0367046;-9.800804;
1562328525;35441;1562328525;35456;1562328524;347403;-0.3992191;-0.05387456;-9.789874;
1562328525;35509;1562328525;35524;1562328524;352403;-0.4019668;-0.05227155;-9.793377;
1562328525;35575;1562328525;35590;1562328524;357403;-0.3965407;-0.0524992;-9.781116;
1562328525;78991;1562328525;79004;1562328524;362403;-0.4026522;-0.05442107;-9.796197;
1562328525;79053;1562328525;79073;1562328524;367403;-0.396264;-0.06056748;-9.775243;
1562328525;121404;1562328525;121423;1562328524;372403;-0.3986749;-0.06033213;-9.78054;
1562328525;121482;1562328525;121503;1562328524;377403;-0.4136229;-0.03889623;-9.788737;
1562328525;121563;1562328525;121584;1562328524;382403;-0.4013271;-0.03684513;-9.782263;
1562328525;121645;1562328525;121666;1562328524;387403;-0.4003389;-0.03168501;-9.787207;
1562328525;121731;1562328525;121752;1562328524;392403;-0.395426;-0.03282488;-9.787482;
1562328525;121813;1562328525;121833;1562328524;397403;-0.4092719;-0.04305484;-9.794747;
1562328525;164176;1562328525;164197;1562328524;402403;-0.3963833;-0.0398837;-9.805285;
1562328525;164250;1562328525;164269;1562328524;407403;-0.3874174;-0.02738222;-9.80952;
1562328525;164329;1562328525;164348;1562328524;412403;-0.375062;-0.03893028;-9.807087;
1562328525;164400;1562328525;164418;1562328524;417403;-0.37667;-0.04120282;-9.810774;
1562328525;207760;1562328525;207773;1562328524;422403;-0.3971614;-0.05687304;-9.812368;
1562328525;207821;1562328525;207832;1562328524;427403;-0.3799457;-0.05809305;-9.812508;
1562328525;207871;1562328525;207882;1562328524;432403;-0.3860116;-0.06480776;-9.81972;
1562328525;207917;1562328525;207928;1562328524;437403;-0.3822361;-0.06859337;-9.817896;
1562328525;207963;1562328525;207973;1562328524;442403;-0.3901159;-0.06641813;-9.820125;
1562328525;208010;1562328525;208020;1562328524;447403;-0.382084;-0.07476926;-9.804842;
1562328525;250365;1562328525;250385;1562328524;452403;-0.3843707;-0.06900341;-9.801426;
1562328525;250444;1562328525;250462;1562328524;457403;-0.3886878;-0.06681517;-9.806065;
1562328525;250547;1562328525;250565;1562328524;462403;-0.3898028;-0.07751654;-9.794277;
1562328525;250622;1562328525;250639;1562328524;467403;-0.3783129;-0.0676823;-9.799853;
1562328525;294035;1562328525;294051;1562328524;472403;-0.3897851;-0.08169549;-9.805743;
1562328525;294113;1562328525;294133;1562328524;477403;-0.4139538;-0.07504795;-9.801341;
1562328525;294194;1562328525;294215;1562328524;482403;-0.4126907;-0.08649722;-9.790374;
1562328525;294276;1562328525;294297;1562328524;487403;-0.4142162;-0.08138089;-9.792719;
1562328525;336615;1562328525;336628;1562328524;492403;-0.4199303;-0.06541749;-9.796783;
1562328525;336666;1562328525;336678;1562328524;497403;-0.4211622;-0.0728203;-9.796727;
1562328525;336714;1562328525;336726;1562328524;502403;-0.4178424;-0.04398954;-9.803674;
1562328525;336762;1562328525;336774;1562328524;507403;-0.4312951;-0.04727941;-9.79394;
1562328525;336813;1562328525;336825;1562328524;512403;-0.4323306;-0.0476448;-9.800716;
1562328525;380179;1562328525;380187;1562328524;517403;-0.4438293;-0.04049612;-9.809583;
1562328525;380224;1562328525;380233;1562328524;522403;-0.4355755;-0.03992773;-9.813745;
1562328525;380268;1562328525;380276;1562328524;527403;-0.4348332;-0.02607268;-9.808343;
1562328525;380317;1562328525;380325;1562328524;532403;-0.4377883;-0.02315907;-9.812284;
1562328525;422588;1562328525;422596;1562328524;537403;-0.4328765;-0.0387812;-9.81647;
1562328525;422634;1562328525;422642;1562328524;542403;-0.4306182;-0.04008716;-9.807083;
1562328525;422678;1562328525;422687;1562328524;547403;-0.4218213;-0.03685179;-9.807173;
1562328525;422724;1562328525;422733;1562328524;552403;-0.4167552;-0.04551931;-9.801469;
1562328525;422769;1562328525;422778;1562328524;557403;-0.4110467;-0.03535578;-9.801456;
1562328525;422813;1562328525;422822;1562328524;562403;-0.4168348;-0.0463053;-9.794798;
1562328525;466099;1562328525;466106;1562328524;567403;-0.4103422;-0.05222818;-9.79307;
1562328525;466144;1562328525;466153;1562328524;572403;-0.3717091;-0.06747914;-9.809505;
1562328525;466190;1562328525;466198;1562328524;577403;-0.3716726;-0.08268473;-9.809926;
1562328525;466234;1562328525;466244;1562328524;582403;-0.3742697;-0.07380939;-9.817769;
1562328525;508573;1562328525;508594;1562328524;587403;-0.3874393;-0.08011354;-9.82563;
1562328525;508646;1562328525;508665;1562328524;592403;-0.3956108;-0.09584691;-9.809516;
1562328525;508718;1562328525;508736;1562328524;597403;-0.3915682;-0.08259731;-9.798243;
1562328525;508789;1562328525;508807;1562328524;602403;-0.397832;-0.07159796;-9.789528;
1562328525;508863;1562328525;508881;1562328524;607403;-0.400607;-0.06322868;-9.78519;
1562328525;508933;1562328525;508952;1562328524;612403;-0.4071008;-0.06680102;-9.778181;
1562328525;509006;1562328525;509024;1562328524;617403;-0.404045;-0.066715;-9.775285;
1562328525;552337;1562328525;552346;1562328524;622403;-0.4233397;-0.05938397;-9.774653;
1562328525;552388;1562328525;552398;1562328524;627403;-0.4257631;-0.05439462;-9.785262;
1562328525;552433;1562328525;552443;1562328524;632403;-0.4135924;-0.05161346;-9.794603;
1562328525;552478;1562328525;552488;1562328524;637403;-0.4345976;-0.0492411;-9.801722;
1562328525;594783;1562328525;594793;1562328524;642403;-0.440002;-0.03756616;-9.806889;
1562328525;594828;1562328525;594839;1562328524;647403;-0.4389466;-0.04106085;-9.819967;
1562328525;594874;1562328525;594884;1562328524;652403;-0.4296352;-0.0393124;-9.816268;
1562328525;594918;1562328525;594929;1562328524;657403;-0.4305897;-0.04268663;-9.819242;
1562328525;638290;1562328525;638310;1562328524;662403;-0.4269129;-0.05235292;-9.829523;
1562328525;638374;1562328525;638393;1562328524;667403;-0.4182819;-0.04305524;-9.828609;
1562328525;638444;1562328525;638462;1562328524;672403;-0.4160796;-0.0606554;-9.818265;
1562328525;680737;1562328525;680746;1562328524;677403;-0.4165348;-0.06031001;-9.819418;
1562328525;680794;1562328525;680805;1562328524;682403;-0.3660196;-0.06264093;-9.787984;
1562328525;680842;1562328525;680854;1562328524;687403;-0.369824;-0.06036737;-9.780643;
1562328525;680891;1562328525;680902;1562328524;692403;-0.3864267;-0.0688217;-9.804656;
1562328525;680939;1562328525;680951;1562328524;697403;-0.4151992;-0.07335284;-9.821927;
1562328525;680990;1562328525;681001;1562328524;702403;-0.4157834;-0.06760522;-9.838198;
1562328525;724360;1562328525;724376;1562328524;707403;-0.412096;-0.07067042;-9.847013;
1562328525;724436;1562328525;724456;1562328524;712403;-0.4362148;-0.05699681;-9.8426;
1562328525;724521;1562328525;724542;1562328524;717403;-0.4407946;-0.04764323;-9.831203;
1562328525;724614;1562328525;724638;1562328524;722403;-0.42916;-0.04325993;-9.833697;
1562328525;766914;1562328525;766923;1562328524;727403;-0.4235578;-0.04965504;-9.827516;
1562328525;766958;1562328525;766967;1562328524;732403;-0.4405921;-0.04865234;-9.844758;
1562328525;767002;1562328525;767012;1562328524;737403;-0.4385178;-0.05052348;-9.828311;
1562328525;767049;1562328525;767059;1562328524;742403;-0.4190016;-0.05655121;-9.813828;
1562328525;767093;1562328525;767103;1562328524;747403;-0.4134622;-0.05585278;-9.806261;
1562328525;767145;1562328525;767154;1562328524;752403;-0.4135412;-0.06189733;-9.782679;
1562328525;810456;1562328525;810464;1562328524;757403;-0.4117425;-0.05613861;-9.788705;
1562328525;810506;1562328525;810514;1562328524;762403;-0.4137344;-0.05918024;-9.782014;
1562328525;810539;1562328525;810546;1562328524;767403;-0.4057679;-0.05206846;-9.785439;
1562328525;810573;1562328525;810580;1562328524;772403;-0.4118797;-0.05573248;-9.772314;
1562328525;852869;1562328525;852889;1562328524;777403;-0.4102201;-0.04372996;-9.772538;
1562328525;852950;1562328525;852969;1562328524;782403;-0.4146997;-0.04131037;-9.77018;
1562328525;853026;1562328525;853046;1562328524;787403;-0.4243376;-0.02981601;-9.782358;
1562328525;853101;1562328525;853121;1562328524;792403;-0.426545;-0.03358122;-9.800242;
1562328525;853176;1562328525;853196;1562328524;797403;-0.4192157;-0.03344085;-9.805761;
1562328525;896521;1562328525;896529;1562328524;802403;-0.4185434;-0.03147525;-9.796692;
1562328525;896555;1562328525;896562;1562328524;807403;-0.4170939;-0.02052158;-9.801553;
1562328525;896585;1562328525;896593;1562328524;812403;-0.4237907;-0.02418464;-9.805305;
1562328525;896619;1562328525;896627;1562328524;817403;-0.418137;-0.02757139;-9.808764;
1562328525;938904;1562328525;938924;1562328524;822403;-0.4043848;-0.03318253;-9.797678;
1562328525;938976;1562328525;938995;1562328524;827403;-0.4058872;-0.03230038;-9.789402;
1562328525;939046;1562328525;939065;1562328524;832403;-0.4078124;-0.03635424;-9.805562;
1562328525;939116;1562328525;939134;1562328524;837403;-0.4072149;-0.04546748;-9.811588;
1562328525;982494;1562328525;982507;1562328524;842403;-0.411331;-0.05265133;-9.81166;
1562328525;982552;1562328525;982572;1562328524;847403;-0.4078185;-0.05867913;-9.817062;
1562328525;982625;1562328525;982641;1562328524;852403;-0.4077542;-0.05063289;-9.824446;
1562328525;982697;1562328525;982715;1562328524;857403;-0.3990811;-0.05753675;-9.81028;
1562328525;982774;1562328525;982792;1562328524;862403;-0.3847642;-0.07029725;-9.80257;
1562328525;982849;1562328525;982867;1562328524;867403;-0.4123634;-0.07905161;-9.801376;
1562328526;25127;1562328526;25135;1562328524;872403;-0.3922203;-0.08105344;-9.814554;
1562328526;25157;1562328526;25164;1562328524;877403;-0.3756864;-0.08782429;-9.809782;
1562328526;25196;1562328526;25203;1562328524;882403;-0.381715;-0.08933821;-9.796792;
1562328526;68543;1562328526;68562;1562328524;887403;-0.3937823;-0.09576306;-9.8057;
1562328526;68619;1562328526;68639;1562328524;892403;-0.3865461;-0.07616893;-9.802316;
1562328526;68693;1562328526;68713;1562328524;897403;-0.3923354;-0.08401301;-9.791219;
1562328526;68768;1562328526;68788;1562328524;902403;-0.3916726;-0.07735027;-9.774185;
1562328526;68843;1562328526;68863;1562328524;907403;-0.3875753;-0.04470412;-9.80105;
1562328526;68920;1562328526;68940;1562328524;912403;-0.3902426;-0.03912641;-9.803164;
1562328526;111234;1562328526;111248;1562328524;917403;-0.4014044;-0.04742628;-9.804475;
1562328526;111286;1562328526;111299;1562328524;922403;-0.4007712;-0.04270844;-9.796908;
1562328526;111336;1562328526;111348;1562328524;927403;-0.3978177;-0.0305481;-9.797636;
1562328526;111392;1562328526;111405;1562328524;932403;-0.3903093;-0.02128399;-9.805694;
1562328526;154713;1562328526;154732;1562328524;937403;-0.3868659;-0.03326717;-9.794827;
1562328526;154785;1562328526;154803;1562328524;942403;-0.3984329;-0.02976619;-9.787545;
1562328526;154855;1562328526;154873;1562328524;947403;-0.4056455;-0.03325025;-9.780096;
1562328526;154927;1562328526;154945;1562328524;952403;-0.4194977;-0.03589529;-9.772701;
1562328526;154998;1562328526;155016;1562328524;957403;-0.4081843;-0.04201364;-9.782557;
1562328526;155069;1562328526;155087;1562328524;962403;-0.4064479;-0.05450995;-9.787482;
1562328526;197404;1562328526;197418;1562328524;967403;-0.3928797;-0.05026563;-9.796975;
1562328526;197465;1562328526;197478;1562328524;972403;-0.4052663;-0.0481255;-9.793686;
1562328526;197515;1562328526;197527;1562328524;977403;-0.4067407;-0.04262897;-9.811854;
1562328526;197564;1562328526;197577;1562328524;982403;-0.3971964;-0.04771454;-9.810155;
1562328526;240960;1562328526;240976;1562328524;987403;-0.3961036;-0.05043754;-9.805394;
1562328526;241032;1562328526;241048;1562328524;992403;-0.4050658;-0.05450208;-9.820351;
1562328526;241098;1562328526;241114;1562328524;997403;-0.4056404;-0.04813301;-9.832343;
1562328526;241165;1562328526;241180;1562328525;2403;-0.4009576;-0.05666652;-9.82867;
1562328526;241232;1562328526;241248;1562328525;7403;-0.3985378;-0.06355933;-9.819009;
1562328526;283589;1562328526;283607;1562328525;12403;-0.4031592;-0.04935463;-9.803587;
1562328526;283663;1562328526;283681;1562328525;17403;-0.4168709;-0.04429553;-9.798958;
1562328526;283733;1562328526;283751;1562328525;22403;-0.409824;-0.03692577;-9.802839;
1562328526;283831;1562328526;283848;1562328525;27403;-0.405364;-0.04122725;-9.789401;
1562328526;327239;1562328526;327259;1562328525;32403;-0.3984599;-0.04127304;-9.785478;
1562328526;327315;1562328526;327334;1562328525;37403;-0.4064982;-0.05586087;-9.777993;
1562328526;369660;1562328526;369678;1562328525;42403;-0.4000284;-0.05518978;-9.782417;
1562328526;369731;1562328526;369749;1562328525;47403;-0.4061858;-0.05803913;-9.77947;
1562328526;369801;1562328526;369819;1562328525;52403;-0.4199425;-0.0714413;-9.787659;
1562328526;369872;1562328526;369889;1562328525;57403;-0.4182652;-0.06468827;-9.7968;
1562328526;369941;1562328526;369959;1562328525;62403;-0.3920121;-0.07034353;-9.786434;
1562328526;370012;1562328526;370029;1562328525;67403;-0.3944821;-0.06917047;-9.797542;
1562328526;412345;1562328526;412363;1562328525;72403;-0.39566;-0.06662717;-9.797459;
1562328526;412416;1562328526;412434;1562328525;77403;-0.3938658;-0.05907389;-9.818169;
1562328526;412491;1562328526;412508;1562328525;82403;-0.3978934;-0.05417928;-9.818663;
1562328526;455890;1562328526;455903;1562328525;87403;-0.3911799;-0.05575797;-9.817483;
1562328526;455944;1562328526;455957;1562328525;92403;-0.4082401;-0.06794161;-9.80797;
1562328526;455993;1562328526;456007;1562328525;97403;-0.4004121;-0.05873791;-9.817925;
1562328526;456045;1562328526;456058;1562328525;102403;-0.3946847;-0.05398133;-9.810958;
1562328526;456095;1562328526;456108;1562328525;107403;-0.4067882;-0.04756018;-9.78131;
1562328526;456145;1562328526;456158;1562328525;112403;-0.399323;-0.04649496;-9.791138;
1562328526;498462;1562328526;498481;1562328525;117403;-0.393427;-0.05298961;-9.787082;
1562328526;498533;1562328526;498550;1562328525;122403;-0.3912243;-0.04788068;-9.778844;
1562328526;498607;1562328526;498625;1562328525;127403;-0.3977553;-0.06048144;-9.774425;
1562328526;542010;1562328526;542028;1562328525;132403;-0.396962;-0.0525374;-9.783091;
1562328526;542081;1562328526;542099;1562328525;137403;-0.4028556;-0.04169859;-9.797026;
1562328526;542150;1562328526;542167;1562328525;142403;-0.3850773;-0.04022148;-9.795655;
1562328526;542219;1562328526;542236;1562328525;147403;-0.4008668;-0.04577379;-9.78971;
1562328526;542290;1562328526;542307;1562328525;152403;-0.4053131;-0.04793953;-9.807186;
1562328526;584632;1562328526;584654;1562328525;157403;-0.3853172;-0.03781033;-9.801804;
1562328526;584713;1562328526;584731;1562328525;162403;-0.4014305;-0.05079328;-9.810372;
1562328526;584788;1562328526;584806;1562328525;167403;-0.3983612;-0.05282289;-9.805737;
1562328526;584857;1562328526;584874;1562328525;172403;-0.41681;-0.0439125;-9.814984;
1562328526;628252;1562328526;628271;1562328525;177403;-0.4069386;-0.04682085;-9.803911;
1562328526;628323;1562328526;628340;1562328525;182403;-0.402833;-0.04049702;-9.80864;
1562328526;628394;1562328526;628412;1562328525;187403;-0.4140682;-0.05579225;-9.810252;
1562328526;628463;1562328526;628481;1562328525;192403;-0.4112216;-0.04866975;-9.813276;
1562328526;628533;1562328526;628550;1562328525;197403;-0.4104932;-0.03826195;-9.800075;
1562328526;628602;1562328526;628619;1562328525;202403;-0.4151361;-0.0265742;-9.79812;
1562328526;670935;1562328526;670954;1562328525;207403;-0.4125417;-0.03448658;-9.796776;
1562328526;671008;1562328526;671025;1562328525;212403;-0.4057304;-0.04897922;-9.808038;
1562328526;671078;1562328526;671095;1562328525;217403;-0.3997518;-0.04005518;-9.810452;
1562328526;671148;1562328526;671165;1562328525;222403;-0.4019488;-0.03501464;-9.814108;
1562328526;714541;1562328526;714571;1562328525;227403;-0.4221503;-0.02601793;-9.818352;
1562328526;714628;1562328526;714650;1562328525;232403;-0.4160785;-0.03185019;-9.816713;
1562328526;714703;1562328526;714725;1562328525;237403;-0.4177687;-0.04357988;-9.81541;
1562328526;714778;1562328526;714795;1562328525;242403;-0.4062125;-0.06799226;-9.780685;
1562328526;757124;1562328526;757154;1562328525;247403;-0.4139066;-0.06285191;-9.785563;
1562328526;757212;1562328526;757230;1562328525;252403;-0.4149862;-0.0752935;-9.790728;
1562328526;757282;1562328526;757300;1562328525;257403;-0.4022414;-0.0958755;-9.79129;
1562328526;757351;1562328526;757369;1562328525;262403;-0.3975266;-0.09132667;-9.794872;
1562328526;757423;1562328526;757441;1562328525;267403;-0.4073604;-0.08247664;-9.792883;
1562328526;757492;1562328526;757510;1562328525;272403;-0.4068344;-0.07631275;-9.809223;
1562328526;799817;1562328526;799836;1562328525;277403;-0.4083693;-0.07149892;-9.796275;
1562328526;799890;1562328526;799907;1562328525;282403;-0.3955539;-0.06393477;-9.798306;
1562328526;799960;1562328526;799978;1562328525;287403;-0.3927643;-0.04153991;-9.781141;
1562328526;800030;1562328526;800048;1562328525;292403;-0.3946804;-0.03158852;-9.797068;
1562328526;800099;1562328526;800116;1562328525;297403;-0.4123949;-0.04865506;-9.822205;
1562328526;843525;1562328526;843544;1562328525;302403;-0.4029652;-0.04172781;-9.82691;
1562328526;843595;1562328526;843613;1562328525;307403;-0.401911;-0.03745811;-9.819756;
1562328526;843665;1562328526;843681;1562328525;312403;-0.3978988;-0.04619354;-9.831347;
1562328526;843732;1562328526;843750;1562328525;317403;-0.4007683;-0.04962396;-9.816544;
1562328526;886087;1562328526;886106;1562328525;322403;-0.4029247;-0.05983226;-9.819605;
1562328526;886159;1562328526;886178;1562328525;327403;-0.4036465;-0.06683083;-9.804843;
1562328526;886233;1562328526;886252;1562328525;332403;-0.399191;-0.06397484;-9.788234;
1562328526;886305;1562328526;886323;1562328525;337403;-0.4092314;-0.04989121;-9.778922;
1562328526;886379;1562328526;886398;1562328525;342403;-0.4146526;-0.0556401;-9.777672;
1562328526;886451;1562328526;886469;1562328525;347403;-0.4051311;-0.06232402;-9.775126;
1562328526;928798;1562328526;928817;1562328525;352403;-0.4008471;-0.05855004;-9.775165;
1562328526;928870;1562328526;928888;1562328525;357403;-0.4162844;-0.04321641;-9.769163;
1562328526;928946;1562328526;928964;1562328525;362403;-0.4233804;-0.04763957;-9.781906;
1562328526;972345;1562328526;972364;1562328525;367403;-0.4035507;-0.05971751;-9.78686;
1562328526;972419;1562328526;972437;1562328525;372403;-0.3912734;-0.05137229;-9.781258;
1562328526;972490;1562328526;972507;1562328525;377403;-0.4058748;-0.03890768;-9.788846;
1562328526;972561;1562328526;972578;1562328525;382403;-0.3972902;-0.03155811;-9.793934;
1562328526;972631;1562328526;972648;1562328525;387403;-0.4157246;-0.03738401;-9.802733;
1562328527;14974;1562328527;14986;1562328525;392403;-0.3957032;-0.03497594;-9.799623;
1562328527;15024;1562328527;15036;1562328525;397403;-0.3965513;-0.04814036;-9.811773;
1562328527;15077;1562328527;15089;1562328525;402403;-0.3936704;-0.04943349;-9.807437;
1562328527;15125;1562328527;15137;1562328525;407403;-0.3912567;-0.0485256;-9.807123;
1562328527;58508;1562328527;58528;1562328525;412403;-0.3799143;-0.04392058;-9.800489;
1562328527;58581;1562328527;58600;1562328525;417403;-0.4043435;-0.06448593;-9.80411;
1562328527;58660;1562328527;58679;1562328525;422403;-0.4071214;-0.06726463;-9.799101;
1562328527;58735;1562328527;58753;1562328525;427403;-0.3998325;-0.05441454;-9.800855;
1562328527;58897;1562328527;58909;1562328525;432403;-0.3936428;-0.06113292;-9.79901;
1562328527;58947;1562328527;58959;1562328525;437403;-0.3947586;-0.0502126;-9.805021;
1562328527;101284;1562328527;101297;1562328525;442403;-0.3878357;-0.06887885;-9.794383;
1562328527;101336;1562328527;101349;1562328525;447403;-0.3849865;-0.06673864;-9.79678;
1562328527;101388;1562328527;101400;1562328525;452403;-0.3812542;-0.05675058;-9.795858;
1562328527;101437;1562328527;101449;1562328525;457403;-0.391387;-0.06824019;-9.788873;
1562328527;144831;1562328527;144851;1562328525;462403;-0.4017021;-0.04784194;-9.804523;
1562328527;144905;1562328527;144924;1562328525;467403;-0.386185;-0.05937646;-9.799411;
1562328527;144978;1562328527;144997;1562328525;472403;-0.3970536;-0.07162874;-9.804378;
1562328527;145050;1562328527;145069;1562328525;477403;-0.4016017;-0.05232862;-9.802424;
1562328527;145124;1562328527;145143;1562328525;482403;-0.4138753;-0.03886392;-9.810117;
1562328527;145197;1562328527;145216;1562328525;487403;-0.40779;-0.05130759;-9.809275;
1562328527;187544;1562328527;187563;1562328525;492403;-0.3952935;-0.04141268;-9.812831;
1562328527;187619;1562328527;187638;1562328525;497403;-0.3930363;-0.04772152;-9.795031;
1562328527;187693;1562328527;187711;1562328525;502403;-0.3976974;-0.05149321;-9.797185;
1562328527;187764;1562328527;187783;1562328525;507403;-0.3862827;-0.04443181;-9.803682;
1562328527;187836;1562328527;187855;1562328525;512403;-0.3987822;-0.06377846;-9.796674;
1562328527;187908;1562328527;187926;1562328525;517403;-0.3999612;-0.0638478;-9.796131;
1562328527;230254;1562328527;230267;1562328525;522403;-0.4037462;-0.04670157;-9.795552;
1562328527;230304;1562328527;230316;1562328525;527403;-0.4085152;-0.0596133;-9.79051;
1562328527;230354;1562328527;230366;1562328525;532403;-0.4144733;-0.04738432;-9.803695;
1562328527;230403;1562328527;230415;1562328525;537403;-0.4046465;-0.05757142;-9.786206;
1562328527;273782;1562328527;273802;1562328525;542403;-0.4095897;-0.05114545;-9.792695;
1562328527;273875;1562328527;273894;1562328525;547403;-0.3918324;-0.05967125;-9.802453;
1562328527;273949;1562328527;273968;1562328525;552403;-0.3982285;-0.05098506;-9.812282;
1562328527;274023;1562328527;274041;1562328525;557403;-0.4075408;-0.02966724;-9.800529;
1562328527;316387;1562328527;316407;1562328525;562403;-0.3892655;-0.0322191;-9.80449;
1562328527;316461;1562328527;316479;1562328525;567403;-0.3975889;-0.05033488;-9.810633;
1562328527;316532;1562328527;316551;1562328525;572403;-0.3960484;-0.05993566;-9.814281;
1562328527;316604;1562328527;316623;1562328525;577403;-0.4009763;-0.05636949;-9.798903;
1562328527;359996;1562328527;360015;1562328525;582403;-0.4003052;-0.05018934;-9.797233;
1562328527;360068;1562328527;360087;1562328525;587403;-0.4040207;-0.05111637;-9.799161;
1562328527;360140;1562328527;360158;1562328525;592403;-0.4080297;-0.050713;-9.804404;
1562328527;360211;1562328527;360229;1562328525;597403;-0.4118323;-0.06332733;-9.802483;
1562328527;402575;1562328527;402595;1562328525;602403;-0.3950633;-0.06929258;-9.79462;
1562328527;402650;1562328527;402669;1562328525;607403;-0.398973;-0.0566498;-9.797495;
1562328527;402722;1562328527;402741;1562328525;612403;-0.4113655;-0.04759302;-9.805572;
1562328527;402794;1562328527;402813;1562328525;617403;-0.4024106;-0.04557126;-9.800161;
1562328527;446202;1562328527;446213;1562328525;622403;-0.4000325;-0.05005167;-9.798811;
1562328527;446245;1562328527;446256;1562328525;627403;-0.406655;-0.05198053;-9.805062;
1562328527;446288;1562328527;446299;1562328525;632403;-0.3980998;-0.04635115;-9.808061;
1562328527;446330;1562328527;446341;1562328525;637403;-0.4033932;-0.029038;-9.804053;
1562328527;488652;1562328527;488672;1562328525;642403;-0.4102038;-0.04727016;-9.813478;
1562328527;488726;1562328527;488744;1562328525;647403;-0.410454;-0.03880181;-9.812278;
1562328527;488797;1562328527;488815;1562328525;652403;-0.4192992;-0.03227647;-9.812307;
1562328527;488868;1562328527;488886;1562328525;657403;-0.4106595;-0.03987221;-9.808372;
1562328527;488940;1562328527;488959;1562328525;662403;-0.4001716;-0.03578892;-9.808352;
1562328527;489011;1562328527;489029;1562328525;667403;-0.3990745;-0.06149976;-9.785675;
1562328527;531363;1562328527;531382;1562328525;672403;-0.408302;-0.05454388;-9.787252;
1562328527;531435;1562328527;531453;1562328525;677403;-0.4129696;-0.05291213;-9.785988;
1562328527;531504;1562328527;531522;1562328525;682403;-0.419002;-0.0490896;-9.780673;
1562328527;531574;1562328527;531592;1562328525;687403;-0.411731;-0.03867183;-9.785151;
1562328527;531643;1562328527;531661;1562328525;692403;-0.409908;-0.04591823;-9.805753;
1562328527;575041;1562328527;575060;1562328525;697403;-0.4117786;-0.03078955;-9.81136;
1562328527;575114;1562328527;575131;1562328525;702403;-0.4063523;-0.03576801;-9.818216;
1562328527;575185;1562328527;575204;1562328525;707403;-0.3977184;-0.03205878;-9.816024;
1562328527;575256;1562328527;575275;1562328525;712403;-0.4016553;-0.04173246;-9.800787;
1562328527;617610;1562328527;617628;1562328525;717403;-0.3881578;-0.03934427;-9.806939;
1562328527;617680;1562328527;617698;1562328525;722403;-0.3996289;-0.04946798;-9.818561;
1562328527;617749;1562328527;617767;1562328525;727403;-0.3898298;-0.05750803;-9.821572;
1562328527;617818;1562328527;617836;1562328525;732403;-0.3972647;-0.06483073;-9.802969;
1562328527;661289;1562328527;661308;1562328525;737403;-0.3980817;-0.07198474;-9.793498;
1562328527;661360;1562328527;661378;1562328525;742403;-0.3989486;-0.08546219;-9.793839;
1562328527;661434;1562328527;661452;1562328525;747403;-0.407983;-0.07843439;-9.789449;
1562328527;661505;1562328527;661523;1562328525;752403;-0.3861535;-0.06134736;-9.786031;
1562328527;661577;1562328527;661595;1562328525;757403;-0.3951688;-0.06739298;-9.789309;
1562328527;661648;1562328527;661667;1562328525;762403;-0.3900485;-0.05948842;-9.786623;
1562328527;703957;1562328527;703970;1562328525;767403;-0.3961322;-0.04648849;-9.765656;
1562328527;704007;1562328527;704020;1562328525;772403;-0.3965762;-0.05599387;-9.781814;
1562328527;704063;1562328527;704076;1562328525;777403;-0.3991193;-0.04508012;-9.797472;
1562328527;747439;1562328527;747459;1562328525;782403;-0.3961127;-0.03704505;-9.812034;
1562328527;747512;1562328527;747531;1562328525;787403;-0.3962079;-0.04881504;-9.802977;
1562328527;747582;1562328527;747600;1562328525;792403;-0.3995366;-0.0484671;-9.805984;
1562328527;747652;1562328527;747671;1562328525;797403;-0.3986029;-0.04790688;-9.802934;
1562328527;747722;1562328527;747741;1562328525;802403;-0.3991399;-0.03279475;-9.812272;
1562328527;747793;1562328527;747811;1562328525;807403;-0.3865567;-0.03347389;-9.803913;
1562328527;790119;1562328527;790138;1562328525;812403;-0.3968382;-0.03823776;-9.81237;
1562328527;790196;1562328527;790215;1562328525;817403;-0.403464;-0.04042477;-9.808101;
1562328527;790271;1562328527;790289;1562328525;822403;-0.4034935;-0.04326393;-9.801187;
1562328527;833676;1562328527;833695;1562328525;827403;-0.3951437;-0.04060974;-9.799922;
1562328527;833746;1562328527;833765;1562328525;832403;-0.3960247;-0.05139251;-9.808704;
1562328527;833844;1562328527;833864;1562328525;837403;-0.4067406;-0.06303078;-9.814065;
1562328527;833917;1562328527;833936;1562328525;842403;-0.4052938;-0.04786226;-9.810674;
1562328527;833988;1562328527;834006;1562328525;847403;-0.4012488;-0.05881391;-9.803269;
1562328527;834057;1562328527;834076;1562328525;852403;-0.4031929;-0.06594983;-9.792065;
1562328527;876408;1562328527;876427;1562328525;857403;-0.4176338;-0.06552497;-9.796768;
1562328527;876481;1562328527;876499;1562328525;862403;-0.4094823;-0.04402576;-9.773726;
1562328527;876552;1562328527;876570;1562328525;867403;-0.4070742;-0.04632227;-9.777072;
1562328527;876621;1562328527;876639;1562328525;872403;-0.4077796;-0.04223097;-9.782546;
1562328527;918962;1562328527;918984;1562328525;877403;-0.4120554;-0.03987635;-9.794069;
1562328527;919040;1562328527;919059;1562328525;882403;-0.4093455;-0.04762676;-9.796798;
1562328527;919111;1562328527;919130;1562328525;887403;-0.4089918;-0.04000592;-9.803464;
1562328527;919183;1562328527;919201;1562328525;892403;-0.3949792;-0.03083628;-9.810898;
1562328527;919254;1562328527;919272;1562328525;897403;-0.3918214;-0.04082268;-9.802872;
1562328527;919323;1562328527;919341;1562328525;902403;-0.383747;-0.05442556;-9.810254;
1562328527;962720;1562328527;962739;1562328525;907403;-0.3913099;-0.05592336;-9.796596;
1562328527;962792;1562328527;962810;1562328525;912403;-0.3872546;-0.04740051;-9.788919;
1562328527;962865;1562328527;962884;1562328525;917403;-0.386912;-0.05693949;-9.787765;
1562328527;962937;1562328527;962955;1562328525;922403;-0.3950371;-0.05919044;-9.782642;
1562328528;5291;1562328528;5313;1562328525;927403;-0.4033539;-0.07637365;-9.788943;
1562328528;5372;1562328528;5392;1562328525;932403;-0.400731;-0.06413378;-9.797466;
1562328528;5450;1562328528;5470;1562328525;937403;-0.4011449;-0.06859916;-9.794071;
1562328528;5524;1562328528;5544;1562328525;942403;-0.4089411;-0.06545173;-9.798976;
1562328528;5603;1562328528;5623;1562328525;947403;-0.4098446;-0.06330359;-9.804512;
1562328528;5678;1562328528;5697;1562328525;952403;-0.4024708;-0.04684315;-9.815823;
1562328528;48041;1562328528;48062;1562328525;957403;-0.4040039;-0.04160883;-9.817344;
1562328528;48118;1562328528;48134;1562328525;962403;-0.4112762;-0.03866803;-9.807527;
1562328528;48191;1562328528;48207;1562328525;967403;-0.4180396;-0.03147302;-9.805471;
1562328528;48258;1562328528;48274;1562328525;972403;-0.4145255;-0.01793027;-9.804105;
1562328528;91647;1562328528;91666;1562328525;977403;-0.4142343;-0.01887902;-9.815192;
1562328528;91711;1562328528;91728;1562328525;982403;-0.4193032;-0.02987844;-9.820177;
1562328528;91773;1562328528;91790;1562328525;987403;-0.422356;-0.01527614;-9.810472;
1562328528;91834;1562328528;91848;1562328525;992403;-0.4160937;-0.03545787;-9.812418;
1562328528;91897;1562328528;91910;1562328525;997403;-0.4030695;-0.0386813;-9.804224;
1562328528;91964;1562328528;91980;1562328526;2403;-0.3889175;-0.03439177;-9.806422;
1562328528;134281;1562328528;134291;1562328526;7403;-0.4140725;-0.04771067;-9.807427;
1562328528;134325;1562328528;134336;1562328526;12403;-0.400607;-0.05170996;-9.789628;
1562328528;134377;1562328528;134389;1562328526;17403;-0.4049593;-0.05465116;-9.798245;
1562328528;134422;1562328528;134432;1562328526;22403;-0.4086529;-0.04740985;-9.792337;
1562328528;177797;1562328528;177808;1562328526;27403;-0.397945;-0.05122896;-9.786304;
1562328528;177847;1562328528;177859;1562328526;32403;-0.4018815;-0.04984231;-9.781764;
1562328528;177897;1562328528;177909;1562328526;37403;-0.4000303;-0.05246252;-9.786096;
1562328528;177947;1562328528;177958;1562328526;42403;-0.4064863;-0.06138357;-9.782392;
1562328528;177999;1562328528;178010;1562328526;47403;-0.3979365;-0.06577572;-9.791452;
1562328528;220338;1562328528;220359;1562328526;52403;-0.3929722;-0.05892481;-9.795225;
1562328528;220421;1562328528;220438;1562328526;57403;-0.4123506;-0.06102958;-9.786791;
1562328528;220517;1562328528;220535;1562328526;62403;-0.4083552;-0.05412787;-9.788362;
1562328528;220589;1562328528;220606;1562328526;67403;-0.3947578;-0.06787652;-9.803331;
1562328528;220658;1562328528;220676;1562328526;72403;-0.4001082;-0.06792714;-9.796132;
1562328528;264048;1562328528;264065;1562328526;77403;-0.3928854;-0.06234603;-9.787498;
1562328528;264122;1562328528;264140;1562328526;82403;-0.3935882;-0.05253343;-9.80091;
1562328528;264197;1562328528;264215;1562328526;87403;-0.3996571;-0.06347334;-9.80162;
1562328528;264271;1562328528;264289;1562328526;92403;-0.3999182;-0.06074055;-9.796787;
1562328528;306636;1562328528;306655;1562328526;97403;-0.3897478;-0.0566851;-9.799103;
1562328528;306710;1562328528;306728;1562328526;102403;-0.3973579;-0.04828179;-9.800436;
1562328528;306792;1562328528;306810;1562328526;107403;-0.399285;-0.0514399;-9.793893;
1562328528;306861;1562328528;306879;1562328526;112403;-0.3891571;-0.04413113;-9.790796;
1562328528;349198;1562328528;349217;1562328526;117403;-0.3887452;-0.04336175;-9.798899;
1562328528;349271;1562328528;349288;1562328526;122403;-0.3974134;-0.0437762;-9.796582;
1562328528;349342;1562328528;349360;1562328526;127403;-0.4004548;-0.03863325;-9.805399;
1562328528;349412;1562328528;349430;1562328526;132403;-0.4007534;-0.04226907;-9.799671;
1562328528;392826;1562328528;392846;1562328526;137403;-0.4043757;-0.04260589;-9.809782;
1562328528;392897;1562328528;392915;1562328526;142403;-0.4026936;-0.03357506;-9.823735;
1562328528;392968;1562328528;392986;1562328526;147403;-0.4035954;-0.04952358;-9.819186;
1562328528;393037;1562328528;393055;1562328526;152403;-0.4018652;-0.04431484;-9.814976;
1562328528;393108;1562328528;393126;1562328526;157403;-0.3976436;-0.05131156;-9.794188;
1562328528;393176;1562328528;393194;1562328526;162403;-0.4006909;-0.04987355;-9.799617;
1562328528;435534;1562328528;435553;1562328526;167403;-0.3993457;-0.05186116;-9.802286;
1562328528;435604;1562328528;435622;1562328526;172403;-0.3881481;-0.06066902;-9.812061;
1562328528;435678;1562328528;435696;1562328526;177403;-0.3976417;-0.04908063;-9.804873;
1562328528;435747;1562328528;435765;1562328526;182403;-0.3955118;-0.05529034;-9.800464;
1562328528;479151;1562328528;479171;1562328526;187403;-0.3991094;-0.05315071;-9.805459;
1562328528;479224;1562328528;479243;1562328526;192403;-0.3936607;-0.03796451;-9.795208;
1562328528;479295;1562328528;479314;1562328526;197403;-0.413221;-0.04672431;-9.8051;
1562328528;479365;1562328528;479383;1562328526;202403;-0.421833;-0.03751679;-9.796688;
1562328528;479434;1562328528;479452;1562328526;207403;-0.4191191;-0.03528198;-9.789625;
1562328528;479503;1562328528;479522;1562328526;212403;-0.4081491;-0.04155891;-9.7868;
1562328528;521869;1562328528;521889;1562328526;217403;-0.4245785;-0.04990063;-9.791811;
1562328528;521942;1562328528;521966;1562328526;222403;-0.4200113;-0.0583266;-9.799985;
1562328528;522014;1562328528;522032;1562328526;227403;-0.4156394;-0.055996;-9.799784;
1562328528;522084;1562328528;522101;1562328526;232403;-0.4142492;-0.04675313;-9.804569;
1562328528;564417;1562328528;564435;1562328526;237403;-0.4098806;-0.04669537;-9.809401;
1562328528;564489;1562328528;564507;1562328526;242403;-0.4080206;-0.03382258;-9.804661;
1562328528;564560;1562328528;564578;1562328526;247403;-0.4136442;-0.04038868;-9.800572;
1562328528;564631;1562328528;564649;1562328526;252403;-0.404906;-0.04673082;-9.806339;
1562328528;608013;1562328528;608032;1562328526;257403;-0.4002912;-0.05723224;-9.799129;
1562328528;608087;1562328528;608106;1562328526;262403;-0.4100828;-0.05425056;-9.806409;
1562328528;608160;1562328528;608178;1562328526;267403;-0.4003157;-0.06411342;-9.808414;
1562328528;650523;1562328528;650532;1562328526;272403;-0.40923;-0.04551275;-9.818917;
1562328528;650560;1562328528;650572;1562328526;277403;-0.4108169;-0.04634157;-9.817645;
1562328528;650605;1562328528;650616;1562328526;282403;-0.4037536;-0.04269214;-9.812227;
1562328528;650648;1562328528;650658;1562328526;287403;-0.4148639;-0.05033726;-9.831318;
1562328528;650692;1562328528;650702;1562328526;292403;-0.4139823;-0.0492654;-9.814257;
1562328528;650734;1562328528;650745;1562328526;297403;-0.4018696;-0.0560432;-9.811427;
1562328528;694045;1562328528;694061;1562328526;302403;-0.4070243;-0.05091668;-9.817813;
1562328528;694108;1562328528;694121;1562328526;307403;-0.3978285;-0.05118467;-9.804303;
1562328528;694166;1562328528;694179;1562328526;312403;-0.4013502;-0.03244426;-9.811136;
1562328528;737467;1562328528;737479;1562328526;317403;-0.4033665;-0.02778795;-9.801566;
1562328528;737525;1562328528;737538;1562328526;322403;-0.3937317;-0.0381228;-9.803182;
1562328528;737579;1562328528;737592;1562328526;327403;-0.3948624;-0.04176243;-9.804177;
1562328528;737636;1562328528;737649;1562328526;332403;-0.4055079;-0.03590541;-9.79992;
1562328528;737688;1562328528;737700;1562328526;337403;-0.3985486;-0.04991568;-9.798231;
1562328528;737740;1562328528;737752;1562328526;342403;-0.3968117;-0.05135103;-9.790689;
1562328528;780071;1562328528;780093;1562328526;347403;-0.4096721;-0.06469099;-9.790022;
1562328528;780167;1562328528;780187;1562328526;352403;-0.4055338;-0.06345655;-9.789721;
1562328528;822621;1562328528;822640;1562328526;357403;-0.4081384;-0.0683658;-9.794248;
1562328528;822695;1562328528;822714;1562328526;362403;-0.4016655;-0.054456;-9.792419;
1562328528;822767;1562328528;822785;1562328526;367403;-0.4063722;-0.05347437;-9.802693;
1562328528;822839;1562328528;822856;1562328526;372403;-0.4102833;-0.05456536;-9.793881;
1562328528;822909;1562328528;822927;1562328526;377403;-0.4168366;-0.05488187;-9.797952;
1562328528;822979;1562328528;822997;1562328526;382403;-0.4060417;-0.05173064;-9.800522;
1562328528;866400;1562328528;866417;1562328526;387403;-0.4016223;-0.05269744;-9.810407;
1562328528;866494;1562328528;866514;1562328526;392403;-0.4058159;-0.04669068;-9.805734;
1562328528;866583;1562328528;866604;1562328526;397403;-0.413047;-0.04293401;-9.790907;
1562328528;866673;1562328528;866693;1562328526;402403;-0.3994671;-0.0540165;-9.796657;
1562328528;909065;1562328528;909078;1562328526;407403;-0.4078313;-0.04339948;-9.802194;
1562328528;909119;1562328528;909131;1562328526;412403;-0.4092683;-0.05222781;-9.811645;
1562328528;909167;1562328528;909179;1562328526;417403;-0.4115377;-0.04876444;-9.782065;
1562328528;909215;1562328528;909227;1562328526;422403;-0.4124744;-0.034059;-9.780993;
1562328528;952637;1562328528;952650;1562328526;427403;-0.3986883;-0.03319437;-9.785103;
1562328528;952687;1562328528;952699;1562328526;432403;-0.3890474;-0.04525657;-9.79882;
1562328528;952737;1562328528;952748;1562328526;437403;-0.3976664;-0.04412675;-9.80692;
1562328528;952785;1562328528;952797;1562328526;442403;-0.4036462;-0.05473946;-9.79805;
1562328528;952834;1562328528;952846;1562328526;447403;-0.400842;-0.06307875;-9.801598;
1562328528;952882;1562328528;952894;1562328526;452403;-0.387668;-0.0502621;-9.800487;
1562328528;995234;1562328528;995248;1562328526;457403;-0.4030375;-0.043265;-9.806476;
1562328528;995286;1562328528;995299;1562328526;462403;-0.3914319;-0.05817267;-9.813126;
1562328528;995342;1562328528;995354;1562328526;467403;-0.3778666;-0.0569435;-9.803879;
1562328528;995392;1562328528;995405;1562328526;472403;-0.4002921;-0.05465828;-9.807445;
1562328529;38808;1562328529;38828;1562328526;477403;-0.4057944;-0.05721962;-9.816724;
1562328529;38882;1562328529;38900;1562328526;482403;-0.3945529;-0.05284461;-9.81791;
1562328529;38953;1562328529;38972;1562328526;487403;-0.3917289;-0.0396493;-9.809546;
1562328529;39023;1562328529;39041;1562328526;492403;-0.3882162;-0.02729446;-9.799859;
1562328529;39093;1562328529;39112;1562328526;497403;-0.3949581;-0.03538955;-9.810867;
1562328529;39164;1562328529;39182;1562328526;502403;-0.3915372;-0.02932497;-9.808408;
1562328529;81515;1562328529;81530;1562328526;507403;-0.3979347;-0.04561425;-9.805933;
1562328529;81597;1562328529;81617;1562328526;512403;-0.3964648;-0.03229485;-9.800798;
1562328529;81677;1562328529;81696;1562328526;517403;-0.4084495;-0.03813728;-9.793837;
1562328529;124025;1562328529;124041;1562328526;522403;-0.4158697;-0.06259009;-9.800521;
1562328529;124112;1562328529;124131;1562328526;527403;-0.4022861;-0.05768107;-9.790071;
1562328529;124184;1562328529;124202;1562328526;532403;-0.407149;-0.06171481;-9.793919;
1562328529;124257;1562328529;124278;1562328526;537403;-0.4066514;-0.0734444;-9.800311;
1562328529;124331;1562328529;124352;1562328526;542403;-0.4057515;-0.05368781;-9.797861;
1562328529;167736;1562328529;167757;1562328526;547403;-0.4080803;-0.05243148;-9.791457;
1562328529;167819;1562328529;167839;1562328526;552403;-0.4178053;-0.04632856;-9.798985;
1562328529;167897;1562328529;167917;1562328526;557403;-0.411689;-0.04910244;-9.799755;
1562328529;210240;1562328529;210258;1562328526;562403;-0.4223138;-0.0438325;-9.798055;
1562328529;210313;1562328529;210328;1562328526;567403;-0.4126897;-0.06494942;-9.794191;
1562328529;210380;1562328529;210396;1562328526;572403;-0.4133378;-0.05271697;-9.798327;
1562328529;210448;1562328529;210464;1562328526;577403;-0.4115272;-0.05658593;-9.813114;
1562328529;210548;1562328529;210563;1562328526;582403;-0.4229971;-0.07056951;-9.817259;
1562328529;253874;1562328529;253885;1562328526;587403;-0.4132544;-0.07584921;-9.815349;
1562328529;253932;1562328529;253940;1562328526;592403;-0.4038557;-0.06510645;-9.809297;
1562328529;253969;1562328529;253976;1562328526;597403;-0.404795;-0.05598243;-9.811095;
1562328529;254004;1562328529;254011;1562328526;602403;-0.4086135;-0.04935685;-9.798409;
1562328529;296219;1562328529;296226;1562328526;607403;-0.4010271;-0.05107085;-9.806418;
1562328529;296257;1562328529;296265;1562328526;612403;-0.406612;-0.03866099;-9.804807;
1562328529;296295;1562328529;296303;1562328526;617403;-0.4029498;-0.05256067;-9.804983;
1562328529;296332;1562328529;296341;1562328526;622403;-0.4081933;-0.05233366;-9.796528;
1562328529;339681;1562328529;339701;1562328526;627403;-0.412953;-0.04727434;-9.798101;
1562328529;339755;1562328529;339773;1562328526;632403;-0.4060687;-0.02718813;-9.806226;
1562328529;339828;1562328529;339847;1562328526;637403;-0.4154286;-0.04594054;-9.812402;
1562328529;339900;1562328529;339918;1562328526;642403;-0.4007875;-0.05222526;-9.800422;
1562328529;339971;1562328529;339989;1562328526;647403;-0.3922607;-0.03943812;-9.80106;
1562328529;340043;1562328529;340061;1562328526;652403;-0.3930373;-0.04383047;-9.815419;
1562328529;340115;1562328529;340133;1562328526;657403;-0.3997421;-0.05371424;-9.802269;
1562328529;382456;1562328529;382477;1562328526;662403;-0.3943217;-0.04610098;-9.793897;
1562328529;382543;1562328529;382563;1562328526;667403;-0.3999461;-0.04627415;-9.794194;
1562328529;382619;1562328529;382639;1562328526;672403;-0.3956494;-0.04835673;-9.807847;
1562328529;382693;1562328529;382711;1562328526;677403;-0.3872458;-0.05500406;-9.804999;
1562328529;426119;1562328529;426139;1562328526;682403;-0.392913;-0.04670564;-9.797986;
1562328529;426196;1562328529;426214;1562328526;687403;-0.3943827;-0.04875208;-9.806425;
1562328529;426269;1562328529;426287;1562328526;692403;-0.3975375;-0.04096723;-9.794924;
1562328529;426339;1562328529;426358;1562328526;697403;-0.4015703;-0.04954923;-9.794644;
1562328529;470800;1562328529;470820;1562328526;702403;-0.3910932;-0.05469226;-9.785639;
1562328529;470875;1562328529;470893;1562328526;707403;-0.4010129;-0.057563;-9.806934;
1562328529;470946;1562328529;470964;1562328526;712403;-0.4096881;-0.06941003;-9.804462;
1562328529;471016;1562328529;471034;1562328526;717403;-0.4079824;-0.05768904;-9.802822;
1562328529;471087;1562328529;471105;1562328526;722403;-0.4087438;-0.05400084;-9.804382;
1562328529;471156;1562328529;471174;1562328526;727403;-0.4090391;-0.05090063;-9.804088;
1562328529;513498;1562328529;513517;1562328526;732403;-0.3868413;-0.0339956;-9.791261;
1562328529;513574;1562328529;513592;1562328526;737403;-0.4026464;-0.03830908;-9.804328;
1562328529;513645;1562328529;513665;1562328526;742403;-0.3954427;-0.03064597;-9.801202;
1562328529;513719;1562328529;513738;1562328526;747403;-0.3931249;-0.04996864;-9.809271;
1562328529;513791;1562328529;513823;1562328526;752403;-0.4166877;-0.04534407;-9.807936;
1562328529;557237;1562328529;557256;1562328526;757403;-0.3984816;-0.05279857;-9.816339;
1562328529;557313;1562328529;557330;1562328526;762403;-0.4052761;-0.03643569;-9.803951;
1562328529;557384;1562328529;557402;1562328526;767403;-0.3920951;-0.0309946;-9.790163;
1562328529;557454;1562328529;557472;1562328526;772403;-0.3800112;-0.04127089;-9.785947;
1562328529;599783;1562328529;599802;1562328526;777403;-0.3804307;-0.04345989;-9.794925;
1562328529;599856;1562328529;599874;1562328526;782403;-0.3823457;-0.04272692;-9.795385;
1562328529;599928;1562328529;599946;1562328526;787403;-0.381327;-0.04024507;-9.80405;
1562328529;599999;1562328529;600017;1562328526;792403;-0.3865556;-0.04860772;-9.811878;
1562328529;642353;1562328529;642370;1562328526;797403;-0.3917286;-0.06307282;-9.816659;
1562328529;642419;1562328529;642438;1562328526;802403;-0.3831551;-0.06652094;-9.82036;
1562328529;642484;1562328529;642502;1562328526;807403;-0.3789375;-0.05993818;-9.812139;
1562328529;642548;1562328529;642566;1562328526;812403;-0.3980771;-0.06511714;-9.809153;
1562328529;685940;1562328529;685953;1562328526;817403;-0.3967766;-0.06997791;-9.806288;
1562328529;685990;1562328529;686002;1562328526;822403;-0.3987632;-0.05604135;-9.802853;
1562328529;686038;1562328529;686051;1562328526;827403;-0.4004587;-0.05949926;-9.801394;
1562328529;686086;1562328529;686099;1562328526;832403;-0.4055169;-0.06549858;-9.800708;
1562328529;728426;1562328529;728446;1562328526;837403;-0.4108309;-0.07798524;-9.810427;
1562328529;728501;1562328529;728520;1562328526;842403;-0.4036679;-0.0776114;-9.813704;
1562328529;728574;1562328529;728593;1562328526;847403;-0.3894417;-0.07648311;-9.80892;
1562328529;728648;1562328529;728666;1562328526;852403;-0.3976027;-0.07150117;-9.805144;
1562328529;728721;1562328529;728739;1562328526;857403;-0.4089859;-0.0857008;-9.804085;
1562328529;728791;1562328529;728810;1562328526;862403;-0.3988484;-0.08089054;-9.821282;
1562328529;772191;1562328529;772208;1562328526;867403;-0.40559;-0.07098075;-9.81477;
1562328529;772255;1562328529;772272;1562328526;872403;-0.4104031;-0.08266734;-9.807298;
1562328529;772323;1562328529;772340;1562328526;877403;-0.3968608;-0.0667417;-9.79704;
1562328529;772385;1562328529;772402;1562328526;882403;-0.4078219;-0.04630111;-9.79205;
1562328529;814732;1562328529;814750;1562328526;887403;-0.4109327;-0.04865783;-9.789926;
1562328529;814804;1562328529;814822;1562328526;892403;-0.408514;-0.03433624;-9.789107;
1562328529;814875;1562328529;814893;1562328526;897403;-0.3933547;-0.05448489;-9.798455;
1562328529;814945;1562328529;814962;1562328526;902403;-0.4019085;-0.03304865;-9.796813;
1562328529;815015;1562328529;815033;1562328526;907403;-0.4019891;-0.04290514;-9.797558;
1562328529;815084;1562328529;815102;1562328526;912403;-0.4075416;-0.021786;-9.799493;
1562328529;858551;1562328529;858564;1562328526;917403;-0.3934963;-0.01788029;-9.796286;
1562328529;858605;1562328529;858617;1562328526;922403;-0.3980923;-0.02080662;-9.786465;
1562328529;858658;1562328529;858670;1562328526;927403;-0.4037215;-0.03500117;-9.806069;
1562328529;858710;1562328529;858722;1562328526;932403;-0.4205464;-0.04213148;-9.811277;
1562328529;900962;1562328529;900976;1562328526;937403;-0.4175371;-0.03388513;-9.819763;
1562328529;901015;1562328529;901028;1562328526;942403;-0.4215453;-0.04013099;-9.817114;
1562328529;901067;1562328529;901079;1562328526;947403;-0.4091071;-0.05017024;-9.812694;
1562328529;901117;1562328529;901129;1562328526;952403;-0.4229173;-0.05716521;-9.82985;
1562328529;944515;1562328529;944530;1562328526;957403;-0.4276494;-0.06509723;-9.818976;
1562328529;944586;1562328529;944599;1562328526;962403;-0.4172324;-0.07862138;-9.809708;
1562328529;944637;1562328529;944649;1562328526;967403;-0.4145795;-0.07512768;-9.823303;
1562328529;944702;1562328529;944722;1562328526;972403;-0.4085415;-0.0743408;-9.806488;
1562328529;987062;1562328529;987080;1562328526;977403;-0.4030908;-0.05925278;-9.804652;
1562328529;987135;1562328529;987167;1562328526;982403;-0.4085473;-0.06173972;-9.810689;
1562328529;987222;1562328529;987240;1562328526;987403;-0.4003427;-0.06849963;-9.800339;
1562328529;987292;1562328529;987311;1562328526;992403;-0.4071211;-0.07408869;-9.794292;
1562328530;30695;1562328530;30713;1562328526;997403;-0.3936245;-0.06287295;-9.806207;
1562328530;30764;1562328530;30783;1562328527;2403;-0.4010406;-0.05617172;-9.798101;
1562328530;30835;1562328530;30853;1562328527;7403;-0.4030495;-0.05860507;-9.786576;
1562328530;30904;1562328530;30922;1562328527;12403;-0.3937283;-0.05381967;-9.785767;
1562328530;30975;1562328530;30994;1562328527;17403;-0.3902236;-0.05763508;-9.781692;
1562328530;73306;1562328530;73324;1562328527;22403;-0.3946104;-0.0414874;-9.802182;
1562328530;73382;1562328530;73400;1562328527;27403;-0.3939879;-0.03717785;-9.803973;
1562328530;73452;1562328530;73470;1562328527;32403;-0.4016454;-0.02318336;-9.801597;
1562328530;73529;1562328530;73547;1562328527;37403;-0.3847099;-0.03555274;-9.805758;
1562328530;115874;1562328530;115887;1562328527;42403;-0.4048156;-0.02422402;-9.799474;
1562328530;115928;1562328530;115940;1562328527;47403;-0.3956348;-0.03330123;-9.805147;
1562328530;115976;1562328530;115989;1562328527;52403;-0.400388;-0.03938859;-9.807931;
1562328530;116026;1562328530;116039;1562328527;57403;-0.4146465;-0.04822294;-9.804688;
1562328530;116074;1562328530;116086;1562328527;62403;-0.3964994;-0.05636836;-9.814099;
1562328530;116126;1562328530;116139;1562328527;67403;-0.4012987;-0.05370875;-9.816445;
1562328530;159493;1562328530;159511;1562328527;72403;-0.4061307;-0.04315859;-9.81999;
1562328530;159572;1562328530;159591;1562328527;77403;-0.4116739;-0.04509502;-9.803904;
1562328530;159642;1562328530;159660;1562328527;82403;-0.3994735;-0.05608568;-9.804111;
1562328530;159711;1562328530;159730;1562328527;87403;-0.4142774;-0.06404609;-9.81319;
1562328530;202070;1562328530;202089;1562328527;92403;-0.4106252;-0.06845783;-9.810763;
1562328530;202143;1562328530;202171;1562328527;97403;-0.4223417;-0.0373469;-9.81052;
1562328530;202226;1562328530;202245;1562328527;102403;-0.4155729;-0.04488739;-9.809183;
1562328530;202297;1562328530;202316;1562328527;107403;-0.4194673;-0.03334785;-9.818502;
1562328530;202368;1562328530;202386;1562328527;112403;-0.3978594;-0.03961044;-9.801749;
1562328530;202447;1562328530;202466;1562328527;117403;-0.3930368;-0.04919607;-9.799233;
1562328530;245887;1562328530;245904;1562328527;122403;-0.4143894;-0.0609869;-9.802616;
1562328530;245973;1562328530;245991;1562328527;127403;-0.3991734;-0.05502455;-9.801486;
1562328530;246042;1562328530;246060;1562328527;132403;-0.4060616;-0.0663477;-9.79923;
1562328530;246116;1562328530;246134;1562328527;137403;-0.3968385;-0.05838599;-9.781757;
1562328530;288481;1562328530;288497;1562328527;142403;-0.4109795;-0.05234693;-9.789944;
1562328530;288564;1562328530;288585;1562328527;147403;-0.3962296;-0.05151827;-9.782251;
1562328530;288647;1562328530;288667;1562328527;152403;-0.3950363;-0.05755941;-9.769499;
1562328530;288731;1562328530;288752;1562328527;157403;-0.3934216;-0.0573283;-9.788839;
1562328530;288814;1562328530;288834;1562328527;162403;-0.4042462;-0.04159217;-9.807401;
1562328530;331182;1562328530;331192;1562328527;167403;-0.3865484;-0.05339989;-9.805317;
1562328530;331222;1562328530;331231;1562328527;172403;-0.3931073;-0.05258531;-9.802767;
1562328530;331262;1562328530;331270;1562328527;177403;-0.4080492;-0.05353545;-9.805333;
1562328530;331298;1562328530;331306;1562328527;182403;-0.4226106;-0.06084298;-9.818755;
1562328530;374644;1562328530;374657;1562328527;187403;-0.4045386;-0.05151311;-9.813625;
1562328530;374697;1562328530;374709;1562328527;192403;-0.4106818;-0.05015442;-9.805632;
1562328530;374749;1562328530;374761;1562328527;197403;-0.4163725;-0.05075168;-9.800879;
1562328530;374805;1562328530;374818;1562328527;202403;-0.4209278;-0.04761438;-9.82024;
1562328530;374859;1562328530;374871;1562328527;207403;-0.4110819;-0.04006533;-9.814894;
1562328530;417223;1562328530;417233;1562328527;212403;-0.4091071;-0.03721737;-9.799044;
1562328530;417266;1562328530;417275;1562328527;217403;-0.4231995;-0.03547058;-9.815055;
1562328530;417313;1562328530;417321;1562328527;222403;-0.4062226;-0.04015141;-9.823777;
1562328530;417351;1562328530;417360;1562328527;227403;-0.4179495;-0.0463709;-9.809407;
1562328530;460730;1562328530;460745;1562328527;232403;-0.406193;-0.05473653;-9.820456;
1562328530;460805;1562328530;460825;1562328527;237403;-0.4052837;-0.05142452;-9.815131;
1562328530;460886;1562328530;460907;1562328527;242403;-0.4093021;-0.06428231;-9.809919;
1562328530;460975;1562328530;460996;1562328527;247403;-0.4067389;-0.06585871;-9.798573;
1562328530;461059;1562328530;461079;1562328527;252403;-0.3885241;-0.05145184;-9.788198;
1562328530;503364;1562328530;503372;1562328527;257403;-0.4030994;-0.05876602;-9.783425;
1562328530;503395;1562328530;503402;1562328527;262403;-0.4042769;-0.0535805;-9.768038;
1562328530;503434;1562328530;503441;1562328527;267403;-0.3939489;-0.06177654;-9.774983;
1562328530;503465;1562328530;503472;1562328527;272403;-0.3878209;-0.06669303;-9.765109;
1562328530;546855;1562328530;546870;1562328527;277403;-0.4104614;-0.05748507;-9.774888;
1562328530;546909;1562328530;546922;1562328527;282403;-0.3873027;-0.06198069;-9.79002;
1562328530;546961;1562328530;546974;1562328527;287403;-0.3947839;-0.05413965;-9.797053;
1562328530;547011;1562328530;547023;1562328527;292403;-0.3816569;-0.05393441;-9.80146;
1562328530;589358;1562328530;589372;1562328527;297403;-0.3898121;-0.06333178;-9.802168;
1562328530;589409;1562328530;589422;1562328527;302403;-0.4015423;-0.04719432;-9.807298;
1562328530;589462;1562328530;589474;1562328527;307403;-0.3981025;-0.04804595;-9.802029;
1562328530;589511;1562328530;589524;1562328527;312403;-0.4023192;-0.05565669;-9.817602;
1562328530;589563;1562328530;589575;1562328527;317403;-0.4034742;-0.05582284;-9.804282;
1562328530;589613;1562328530;589625;1562328527;322403;-0.41413;-0.05310217;-9.821649;
1562328530;633031;1562328530;633044;1562328527;327403;-0.3989588;-0.0313689;-9.816755;
1562328530;633084;1562328530;633096;1562328527;332403;-0.3947927;-0.03127858;-9.828883;
1562328530;633138;1562328530;633151;1562328527;337403;-0.3933909;-0.04182013;-9.817132;
1562328530;633205;1562328530;633217;1562328527;342403;-0.395386;-0.03498862;-9.824426;
1562328530;633257;1562328530;633270;1562328527;347403;-0.389684;-0.04810556;-9.807162;
1562328530;675619;1562328530;675632;1562328527;352403;-0.3997339;-0.06533406;-9.775701;
1562328530;675672;1562328530;675684;1562328527;357403;-0.4071118;-0.05575243;-9.784678;
1562328530;675727;1562328530;675739;1562328527;362403;-0.4092539;-0.0486527;-9.797624;
1562328530;675776;1562328530;675788;1562328527;367403;-0.4014812;-0.05796895;-9.79933;
1562328530;675826;1562328530;675838;1562328527;372403;-0.3984324;-0.04373825;-9.8039;
1562328530;719211;1562328530;719231;1562328527;377403;-0.408469;-0.05275532;-9.797203;
1562328530;719291;1562328530;719310;1562328527;382403;-0.4074395;-0.05854762;-9.795034;
1562328530;719363;1562328530;719380;1562328527;387403;-0.4019714;-0.04584064;-9.805216;
1562328530;719433;1562328530;719451;1562328527;392403;-0.4129916;-0.04007353;-9.820014;
1562328530;761738;1562328530;761751;1562328527;397403;-0.4247648;-0.04803745;-9.830068;
1562328530;761789;1562328530;761802;1562328527;402403;-0.4055119;-0.0342105;-9.82691;
1562328530;761838;1562328530;761850;1562328527;407403;-0.3957028;-0.03552484;-9.817997;
1562328530;761902;1562328530;761923;1562328527;412403;-0.409949;-0.04127206;-9.829011;
1562328530;761962;1562328530;761978;1562328527;417403;-0.4097255;-0.03061196;-9.829247;
1562328530;805341;1562328530;805354;1562328527;422403;-0.4100948;-0.04307346;-9.801461;
1562328530;805393;1562328530;805405;1562328527;427403;-0.4125472;-0.04585315;-9.789068;
1562328530;805443;1562328530;805455;1562328527;432403;-0.4123415;-0.05343842;-9.804259;
1562328530;805491;1562328530;805503;1562328527;437403;-0.4094543;-0.04896708;-9.798165;
1562328530;805540;1562328530;805553;1562328527;442403;-0.4098983;-0.05954437;-9.790227;
1562328530;847907;1562328530;847924;1562328527;447403;-0.4024559;-0.05533383;-9.796718;
1562328530;847980;1562328530;848000;1562328527;452403;-0.4102696;-0.05238549;-9.802766;
1562328530;848060;1562328530;848074;1562328527;457403;-0.4149751;-0.06721798;-9.808648;
1562328530;891468;1562328530;891483;1562328527;462403;-0.3938608;-0.0597375;-9.804475;
1562328530;891528;1562328530;891538;1562328527;467403;-0.3931125;-0.04942546;-9.788544;
1562328530;891580;1562328530;891590;1562328527;472403;-0.3979616;-0.0573628;-9.790188;
1562328530;891632;1562328530;891642;1562328527;477403;-0.3967993;-0.06601746;-9.80092;
1562328530;891687;1562328530;891699;1562328527;482403;-0.3902585;-0.03312391;-9.799893;
1562328530;891739;1562328530;891750;1562328527;487403;-0.3934794;-0.04717054;-9.80629;
1562328530;934053;1562328530;934066;1562328527;492403;-0.4073006;-0.04198316;-9.805583;
1562328530;934131;1562328530;934150;1562328527;497403;-0.4121277;-0.02863864;-9.808;
1562328530;934209;1562328530;934228;1562328527;502403;-0.4028681;-0.03400823;-9.805868;
1562328530;976592;1562328530;976604;1562328527;507403;-0.3994146;-0.04081643;-9.806978;
1562328530;976643;1562328530;976657;1562328527;512403;-0.4101977;-0.0603212;-9.812491;
1562328530;976697;1562328530;976710;1562328527;517403;-0.4143269;-0.06054881;-9.80782;
1562328530;976750;1562328530;976763;1562328527;522403;-0.3965863;-0.06180644;-9.798374;
1562328530;976803;1562328530;976816;1562328527;527403;-0.3874554;-0.05832723;-9.791685;
1562328530;976856;1562328530;976869;1562328527;532403;-0.3974219;-0.04752504;-9.801573;
1562328531;20257;1562328531;20274;1562328527;537403;-0.4110973;-0.05468273;-9.792171;
1562328531;20342;1562328531;20360;1562328527;542403;-0.4031279;-0.05140029;-9.775846;
1562328531;20417;1562328531;20436;1562328527;547403;-0.3964144;-0.07007179;-9.778975;
1562328531;20508;1562328531;20528;1562328527;552403;-0.4038002;-0.0609253;-9.799626;
1562328531;62876;1562328531;62893;1562328527;557403;-0.4045778;-0.06053582;-9.793367;
1562328531;62949;1562328531;62969;1562328527;562403;-0.3927911;-0.06361779;-9.792112;
1562328531;63021;1562328531;63039;1562328527;567403;-0.4089295;-0.04719564;-9.80424;
1562328531;63093;1562328531;63111;1562328527;572403;-0.4128278;-0.05753852;-9.79705;
1562328531;63164;1562328531;63182;1562328527;577403;-0.4098393;-0.0491339;-9.795233;
1562328531;106520;1562328531;106531;1562328527;582403;-0.3882582;-0.04524539;-9.794877;
1562328531;106565;1562328531;106576;1562328527;587403;-0.3964642;-0.04578707;-9.805722;
1562328531;106608;1562328531;106619;1562328527;592403;-0.4114892;-0.05668387;-9.809442;
1562328531;106651;1562328531;106662;1562328527;597403;-0.4203865;-0.05924283;-9.820647;
1562328531;149024;1562328531;149042;1562328527;602403;-0.4096211;-0.04322417;-9.811021;
1562328531;149095;1562328531;149114;1562328527;607403;-0.4011133;-0.03717538;-9.825901;
1562328531;149168;1562328531;149188;1562328527;612403;-0.4053585;-0.0388458;-9.826158;
1562328531;149243;1562328531;149261;1562328527;617403;-0.4077832;-0.02809559;-9.808722;
1562328531;149314;1562328531;149332;1562328527;622403;-0.4077536;-0.02975889;-9.809154;
1562328531;149383;1562328531;149401;1562328527;627403;-0.4112438;-0.03390979;-9.816744;
1562328531;192828;1562328531;192845;1562328527;632403;-0.4037557;-0.04053549;-9.830471;
1562328531;192899;1562328531;192918;1562328527;637403;-0.4076862;-0.05393733;-9.80362;
1562328531;192972;1562328531;192991;1562328527;642403;-0.3979114;-0.05439666;-9.812484;
1562328531;193042;1562328531;193060;1562328527;647403;-0.4102371;-0.03503001;-9.805488;
1562328531;193113;1562328531;193131;1562328527;652403;-0.4150062;-0.01981556;-9.805387;
1562328531;193183;1562328531;193201;1562328527;657403;-0.4184993;-0.01132055;-9.806981;
1562328531;235547;1562328531;235566;1562328527;662403;-0.3987898;-0.01591972;-9.834205;
1562328531;235621;1562328531;235640;1562328527;667403;-0.4011962;-0.0186521;-9.815792;
1562328531;235697;1562328531;235716;1562328527;672403;-0.4050969;-0.03934494;-9.803834;
1562328531;235766;1562328531;235784;1562328527;677403;-0.4039323;-0.04803993;-9.797388;
1562328531;278195;1562328531;278206;1562328527;682403;-0.3968852;-0.04523722;-9.794777;
1562328531;278235;1562328531;278244;1562328527;687403;-0.3926953;-0.07144914;-9.801487;
1562328531;278272;1562328531;278280;1562328527;692403;-0.392048;-0.07355858;-9.793938;
1562328531;278305;1562328531;278314;1562328527;697403;-0.3986398;-0.06525233;-9.786271;
1562328531;278340;1562328531;278349;1562328527;702403;-0.3997736;-0.07451103;-9.791729;
1562328531;278375;1562328531;278383;1562328527;707403;-0.4097353;-0.07070703;-9.794447;
1562328531;321752;1562328531;321772;1562328527;712403;-0.404226;-0.07503537;-9.797232;
1562328531;321828;1562328531;321852;1562328527;717403;-0.4102429;-0.05684104;-9.801612;
1562328531;321913;1562328531;321946;1562328527;722403;-0.3872266;-0.05984062;-9.805705;
1562328531;364276;1562328531;364289;1562328527;727403;-0.3809761;-0.0498164;-9.811728;
1562328531;364332;1562328531;364345;1562328527;732403;-0.3849899;-0.07425898;-9.801218;
1562328531;364381;1562328531;364394;1562328527;737403;-0.3841728;-0.08346433;-9.795958;
1562328531;364432;1562328531;364444;1562328527;742403;-0.3888659;-0.07353738;-9.801837;
1562328531;364481;1562328531;364493;1562328527;747403;-0.4025243;-0.06746069;-9.796441;
1562328531;364530;1562328531;364542;1562328527;752403;-0.4112125;-0.04503568;-9.787994;
1562328531;407916;1562328531;407934;1562328527;757403;-0.4075653;-0.03576453;-9.79467;
1562328531;407997;1562328531;408016;1562328527;762403;-0.4002212;-0.04278454;-9.790872;
1562328531;408072;1562328531;408090;1562328527;767403;-0.412431;-0.04828373;-9.789541;
1562328531;450420;1562328531;450438;1562328527;772403;-0.4124779;-0.05374354;-9.785165;
1562328531;450502;1562328531;450521;1562328527;777403;-0.422895;-0.06306024;-9.79855;
1562328531;450574;1562328531;450592;1562328527;782403;-0.4367388;-0.06363407;-9.803626;
1562328531;450642;1562328531;450660;1562328527;787403;-0.4247678;-0.07735378;-9.805712;
1562328531;450711;1562328531;450728;1562328527;792403;-0.4134967;-0.07411133;-9.80494;
1562328531;450778;1562328531;450796;1562328527;797403;-0.4251623;-0.05205014;-9.797029;
1562328531;493121;1562328531;493141;1562328527;802403;-0.4203826;-0.05113342;-9.809443;
1562328531;493194;1562328531;493213;1562328527;807403;-0.3964867;-0.03278869;-9.779265;
1562328531;493264;1562328531;493283;1562328527;812403;-0.3933836;-0.04357869;-9.785344;
1562328531;493343;1562328531;493358;1562328527;817403;-0.4005481;-0.06838217;-9.787922;
1562328531;493413;1562328531;493433;1562328527;822403;-0.3880775;-0.08687217;-9.792924;
1562328531;536793;1562328531;536806;1562328527;827403;-0.3837677;-0.09197385;-9.795607;
1562328531;536844;1562328531;536856;1562328527;832403;-0.3872564;-0.08726715;-9.804274;
1562328531;536893;1562328531;536905;1562328527;837403;-0.388572;-0.09213867;-9.815468;
1562328531;536941;1562328531;536954;1562328527;842403;-0.3870358;-0.09779885;-9.822706;
1562328531;579260;1562328531;579274;1562328527;847403;-0.3939886;-0.09723615;-9.810829;
1562328531;579336;1562328531;579352;1562328527;852403;-0.4060432;-0.08263934;-9.820969;
1562328531;579405;1562328531;579421;1562328527;857403;-0.3984747;-0.08724333;-9.818942;
1562328531;579474;1562328531;579490;1562328527;862403;-0.3905845;-0.06979457;-9.827111;
1562328531;579543;1562328531;579559;1562328527;867403;-0.3900791;-0.08266715;-9.821236;
1562328531;622933;1562328531;622953;1562328527;872403;-0.3859805;-0.08283876;-9.816196;
1562328531;623011;1562328531;623030;1562328527;877403;-0.374101;-0.05854725;-9.799134;
1562328531;623086;1562328531;623105;1562328527;882403;-0.3822252;-0.05303014;-9.804337;
1562328531;623167;1562328531;623184;1562328527;887403;-0.3995265;-0.04478572;-9.79819;
1562328531;665504;1562328531;665516;1562328527;892403;-0.3917686;-0.03949912;-9.799479;
1562328531;665554;1562328531;665567;1562328527;897403;-0.3940264;-0.02025319;-9.801624;
1562328531;665612;1562328531;665624;1562328527;902403;-0.3983448;-0.02812391;-9.788532;
1562328531;665664;1562328531;665676;1562328527;907403;-0.4138057;-0.02063471;-9.79163;
1562328531;665712;1562328531;665724;1562328527;912403;-0.3988174;-0.02238377;-9.787292;
1562328531;709112;1562328531;709124;1562328527;917403;-0.3826613;-0.02276736;-9.786912;
1562328531;709162;1562328531;709172;1562328527;922403;-0.4042221;-0.02945559;-9.795284;
1562328531;709214;1562328531;709224;1562328527;927403;-0.41165;-0.0402805;-9.789269;
1562328531;709260;1562328531;709271;1562328527;932403;-0.4088365;-0.02508276;-9.782128;
1562328531;751659;1562328531;751672;1562328527;937403;-0.4026545;-0.03224964;-9.780701;
1562328531;751719;1562328531;751732;1562328527;942403;-0.4201376;-0.051234;-9.802825;
1562328531;751777;1562328531;751789;1562328527;947403;-0.4160008;-0.0545623;-9.800647;
1562328531;751825;1562328531;751838;1562328527;952403;-0.4080482;-0.06677012;-9.796303;
1562328531;795259;1562328531;795271;1562328527;957403;-0.4204285;-0.04746643;-9.801904;
1562328531;795309;1562328531;795321;1562328527;962403;-0.4210959;-0.05285589;-9.79589;
1562328531;795368;1562328531;795381;1562328527;967403;-0.4039571;-0.05337142;-9.790046;
1562328531;795418;1562328531;795430;1562328527;972403;-0.3961926;-0.04112359;-9.799915;
1562328531;795468;1562328531;795480;1562328527;977403;-0.4127012;-0.0440634;-9.794891;
1562328531;795518;1562328531;795530;1562328527;982403;-0.4015949;-0.04283424;-9.799474;
1562328531;837872;1562328531;837886;1562328527;987403;-0.3954396;-0.05082212;-9.790412;
1562328531;837938;1562328531;837954;1562328527;992403;-0.409445;-0.03175784;-9.807058;
1562328531;838008;1562328531;838023;1562328527;997403;-0.4040766;-0.05173327;-9.822157;
1562328531;838075;1562328531;838091;1562328528;2403;-0.4029405;-0.05135006;-9.822631;
1562328531;880454;1562328531;880485;1562328528;7403;-0.4062673;-0.05016719;-9.81988;
1562328531;880544;1562328531;880557;1562328528;12403;-0.4097844;-0.04684545;-9.830729;
1562328531;880684;1562328531;880696;1562328528;17403;-0.4052492;-0.04370943;-9.832254;
1562328531;880743;1562328531;880756;1562328528;22403;-0.4170145;-0.04745348;-9.822175;
1562328531;924124;1562328531;924132;1562328528;27403;-0.4095497;-0.05746993;-9.802762;
1562328531;924162;1562328531;924171;1562328528;32403;-0.411685;-0.05019477;-9.809316;
1562328531;924203;1562328531;924211;1562328528;37403;-0.4151119;-0.05009321;-9.808112;
1562328531;924239;1562328531;924247;1562328528;42403;-0.4020181;-0.05441633;-9.806116;
1562328531;966496;1562328531;966511;1562328528;47403;-0.4033087;-0.04757395;-9.795106;
1562328531;966558;1562328531;966574;1562328528;52403;-0.3985347;-0.05483145;-9.788827;
1562328531;966627;1562328531;966643;1562328528;57403;-0.3948627;-0.0651368;-9.797264;
1562328531;966688;1562328531;966704;1562328528;62403;-0.4017489;-0.06064792;-9.787069;
1562328532;10168;1562328532;10186;1562328528;67403;-0.3975861;-0.06496862;-9.786022;
1562328532;10234;1562328532;10250;1562328528;72403;-0.4023547;-0.06961489;-9.789324;
1562328532;10296;1562328532;10312;1562328528;77403;-0.3918806;-0.05251568;-9.798346;
1562328532;10357;1562328532;10373;1562328528;82403;-0.395183;-0.0528448;-9.786421;
1562328532;10421;1562328532;10437;1562328528;87403;-0.3849138;-0.0552905;-9.795498;
1562328532;52769;1562328532;52783;1562328528;92403;-0.3933625;-0.06812128;-9.793867;
1562328532;52825;1562328532;52837;1562328528;97403;-0.392308;-0.05944071;-9.807354;
1562328532;52874;1562328532;52886;1562328528;102403;-0.3922297;-0.04710586;-9.807911;
1562328532;52929;1562328532;52942;1562328528;107403;-0.385828;-0.04031359;-9.807314;
1562328532;96243;1562328532;96251;1562328528;112403;-0.3957374;-0.04968974;-9.805021;
1562328532;96289;1562328532;96296;1562328528;117403;-0.4035045;-0.05415738;-9.809214;
1562328532;96322;1562328532;96330;1562328528;122403;-0.4041481;-0.04931588;-9.814377;
1562328532;96358;1562328532;96365;1562328528;127403;-0.3993586;-0.04110877;-9.801034;
1562328532;96389;1562328532;96396;1562328528;132403;-0.3981142;-0.06650728;-9.805492;
1562328532;96420;1562328532;96427;1562328528;137403;-0.398442;-0.06391189;-9.797742;
1562328532;138727;1562328532;138741;1562328528;142403;-0.4013963;-0.04893391;-9.788074;
1562328532;138792;1562328532;138805;1562328528;147403;-0.3935926;-0.04809379;-9.794601;
1562328532;138847;1562328532;138860;1562328528;152403;-0.3926084;-0.05590709;-9.806334;
1562328532;138902;1562328532;138914;1562328528;157403;-0.3899348;-0.04950488;-9.792949;
1562328532;182262;1562328532;182271;1562328528;162403;-0.3960867;-0.05485282;-9.790452;
1562328532;182297;1562328532;182305;1562328528;167403;-0.4061085;-0.05597928;-9.790983;
1562328532;182328;1562328532;182335;1562328528;172403;-0.3982866;-0.05202534;-9.790372;
1562328532;182361;1562328532;182368;1562328528;177403;-0.4009065;-0.05271525;-9.78757;
1562328532;182393;1562328532;182400;1562328528;182403;-0.3916465;-0.05154399;-9.79566;
1562328532;182424;1562328532;182431;1562328528;187403;-0.3949979;-0.04356064;-9.80639;
1562328532;225725;1562328532;225732;1562328528;192403;-0.4022218;-0.04535407;-9.82289;
1562328532;225762;1562328532;225769;1562328528;197403;-0.4050054;-0.05773108;-9.813416;
1562328532;225797;1562328532;225804;1562328528;202403;-0.413788;-0.05572822;-9.804237;
1562328532;225830;1562328532;225837;1562328528;207403;-0.3975835;-0.05569905;-9.799774;
1562328532;268178;1562328532;268191;1562328528;212403;-0.4047732;-0.04403182;-9.80467;
1562328532;268230;1562328532;268243;1562328528;217403;-0.4136293;-0.03502504;-9.808321;
1562328532;268281;1562328532;268293;1562328528;222403;-0.4033077;-0.03343781;-9.806125;
1562328532;268331;1562328532;268343;1562328528;227403;-0.4097812;-0.04162427;-9.809578;
1562328532;268382;1562328532;268394;1562328528;232403;-0.41599;-0.04173774;-9.829437;
1562328532;268431;1562328532;268443;1562328528;237403;-0.4029737;-0.06425654;-9.834904;
1562328532;311860;1562328532;311869;1562328528;242403;-0.4052067;-0.05516234;-9.820386;
1562328532;311901;1562328532;311911;1562328528;247403;-0.4003871;-0.03800229;-9.810701;
1562328532;311948;1562328532;311959;1562328528;252403;-0.4070825;-0.05870254;-9.803941;
1562328532;311991;1562328532;312002;1562328528;257403;-0.4111256;-0.05942245;-9.800605;
1562328532;354358;1562328532;354380;1562328528;262403;-0.3967396;-0.04966943;-9.800003;
1562328532;354435;1562328532;354452;1562328528;267403;-0.3912917;-0.042191;-9.792426;
1562328532;354504;1562328532;354524;1562328528;272403;-0.3889556;-0.03841979;-9.789066;
1562328532;354573;1562328532;354591;1562328528;277403;-0.3958711;-0.05025525;-9.786405;
1562328532;354645;1562328532;354664;1562328528;282403;-0.3998444;-0.04738078;-9.796327;
1562328532;354718;1562328532;354735;1562328528;287403;-0.396311;-0.05277378;-9.790738;
1562328532;397027;1562328532;397038;1562328528;292403;-0.3973535;-0.0344537;-9.779174;
1562328532;397079;1562328532;397090;1562328528;297403;-0.3941941;-0.05093199;-9.812019;
1562328532;397122;1562328532;397132;1562328528;302403;-0.3898652;-0.06134559;-9.796627;
1562328532;440549;1562328532;440567;1562328528;307403;-0.3968655;-0.05335891;-9.788767;
1562328532;440633;1562328532;440651;1562328528;312403;-0.3962851;-0.03914832;-9.791603;
1562328532;440702;1562328532;440721;1562328528;317403;-0.4018665;-0.05939585;-9.783907;
1562328532;440784;1562328532;440803;1562328528;322403;-0.3918311;-0.05362627;-9.777411;
1562328532;483181;1562328532;483200;1562328528;327403;-0.4079099;-0.04991749;-9.789043;
1562328532;483262;1562328532;483280;1562328528;332403;-0.4008049;-0.0539561;-9.795553;
1562328532;483341;1562328532;483370;1562328528;337403;-0.395413;-0.06711302;-9.784581;
1562328532;483592;1562328532;483627;1562328528;342403;-0.4019704;-0.06033541;-9.796282;
1562328532;483690;1562328532;483710;1562328528;347403;-0.4151588;-0.05504814;-9.789463;
1562328532;526079;1562328532;526092;1562328528;352403;-0.4051517;-0.0439548;-9.801347;
1562328532;526134;1562328532;526147;1562328528;357403;-0.400399;-0.04516267;-9.798804;
1562328532;526185;1562328532;526197;1562328528;362403;-0.4027199;-0.05057685;-9.802426;
1562328532;526234;1562328532;526246;1562328528;367403;-0.4164754;-0.05161792;-9.805794;
1562328532;569632;1562328532;569645;1562328528;372403;-0.4169091;-0.05646668;-9.803113;
1562328532;569704;1562328532;569724;1562328528;377403;-0.394795;-0.04531304;-9.80426;
1562328532;569788;1562328532;569808;1562328528;382403;-0.414069;-0.03433237;-9.807635;
1562328532;569870;1562328532;569891;1562328528;387403;-0.4141224;-0.01750916;-9.822279;
1562328532;612217;1562328532;612228;1562328528;392403;-0.4079512;-0.01857737;-9.835898;
1562328532;612268;1562328532;612279;1562328528;397403;-0.3960555;-0.03197158;-9.829138;
1562328532;612322;1562328532;612333;1562328528;402403;-0.404345;-0.0267405;-9.83459;
1562328532;612375;1562328532;612386;1562328528;407403;-0.4081971;-0.03795486;-9.819557;
1562328532;612427;1562328532;612438;1562328528;412403;-0.4060755;-0.04241965;-9.817443;
1562328532;612479;1562328532;612491;1562328528;417403;-0.4083908;-0.05686409;-9.806396;
1562328532;655780;1562328532;655789;1562328528;422403;-0.4103845;-0.0658449;-9.785547;
1562328532;655832;1562328532;655845;1562328528;427403;-0.4132223;-0.05854942;-9.784689;
1562328532;655897;1562328532;655911;1562328528;432403;-0.4111278;-0.06544623;-9.777555;
1562328532;699216;1562328532;699225;1562328528;437403;-0.3948285;-0.04910413;-9.788885;
1562328532;699261;1562328532;699270;1562328528;442403;-0.4105391;-0.06696144;-9.791906;
1562328532;699298;1562328532;699307;1562328528;447403;-0.4053072;-0.04859066;-9.790257;
1562328532;699334;1562328532;699342;1562328528;452403;-0.4079813;-0.07984182;-9.796402;
1562328532;699368;1562328532;699377;1562328528;457403;-0.4088559;-0.06326453;-9.788447;
1562328532;699404;1562328532;699412;1562328528;462403;-0.410131;-0.05747382;-9.797714;
1562328532;741660;1562328532;741668;1562328528;467403;-0.399415;-0.06179364;-9.808643;
1562328532;741704;1562328532;741711;1562328528;472403;-0.4036177;-0.06181879;-9.801355;
1562328532;741738;1562328532;741746;1562328528;477403;-0.4097825;-0.04620355;-9.798537;
1562328532;785131;1562328532;785145;1562328528;482403;-0.4012886;-0.03783956;-9.803916;
1562328532;785189;1562328532;785202;1562328528;487403;-0.4044764;-0.04275868;-9.807017;
1562328532;785241;1562328532;785253;1562328528;492403;-0.4057817;-0.04308667;-9.812806;
1562328532;785290;1562328532;785302;1562328528;497403;-0.4043538;-0.04495458;-9.813346;
1562328532;785341;1562328532;785353;1562328528;502403;-0.3958193;-0.04795169;-9.808423;
1562328532;785398;1562328532;785411;1562328528;507403;-0.3919184;-0.03613055;-9.812414;
1562328532;827733;1562328532;827747;1562328528;512403;-0.4094924;-0.04738756;-9.807157;
1562328532;827784;1562328532;827796;1562328528;517403;-0.3824535;-0.0561961;-9.796138;
1562328532;827835;1562328532;827848;1562328528;522403;-0.3983098;-0.06338681;-9.802359;
1562328532;827884;1562328532;827897;1562328528;527403;-0.3982423;-0.06855891;-9.786082;
1562328532;871303;1562328532;871319;1562328528;532403;-0.398761;-0.06659251;-9.794157;
1562328532;871388;1562328532;871412;1562328528;537403;-0.3930819;-0.07229895;-9.795065;
1562328532;871486;1562328532;871510;1562328528;542403;-0.39184;-0.07153466;-9.808545;
1562328532;871576;1562328532;871595;1562328528;547403;-0.3918869;-0.0649823;-9.812432;
1562328532;913946;1562328532;913962;1562328528;552403;-0.4036574;-0.05800343;-9.797071;
1562328532;914023;1562328532;914044;1562328528;557403;-0.400264;-0.05466516;-9.784762;
1562328532;914107;1562328532;914128;1562328528;562403;-0.407954;-0.06131736;-9.796718;
1562328532;914190;1562328532;914210;1562328528;567403;-0.4084312;-0.05360214;-9.79532;
1562328532;914275;1562328532;914296;1562328528;572403;-0.4137105;-0.04600857;-9.803117;
1562328532;956633;1562328532;956649;1562328528;577403;-0.4058834;-0.04795916;-9.795642;
1562328532;956710;1562328532;956731;1562328528;582403;-0.4154575;-0.05054149;-9.803823;
1562328532;956793;1562328532;956813;1562328528;587403;-0.4205558;-0.0701047;-9.823963;
1562328532;956877;1562328532;956898;1562328528;592403;-0.4165669;-0.06219991;-9.8201;
1562328532;956962;1562328532;956983;1562328528;597403;-0.4196219;-0.05023944;-9.818195;
1562328532;957046;1562328532;957067;1562328528;602403;-0.4048985;-0.05443463;-9.787148;
1562328533;459;1562328533;491;1562328528;607403;-0.4004321;-0.0494832;-9.787545;
1562328533;563;1562328533;583;1562328528;612403;-0.4034483;-0.05406597;-9.790086;
1562328533;644;1562328533;665;1562328528;617403;-0.4067689;-0.05909343;-9.791355;
1562328533;735;1562328533;756;1562328528;622403;-0.4018465;-0.06253947;-9.798392;
1562328533;43107;1562328533;43125;1562328528;627403;-0.3938955;-0.05037317;-9.795432;
1562328533;43182;1562328533;43200;1562328528;632403;-0.4074586;-0.05751998;-9.803086;
1562328533;43252;1562328533;43270;1562328528;637403;-0.4036525;-0.05178383;-9.819781;
1562328533;43324;1562328533;43343;1562328528;642403;-0.3945562;-0.05474007;-9.811596;
1562328533;43395;1562328533;43414;1562328528;647403;-0.4020515;-0.07504533;-9.815268;
1562328533;85736;1562328533;85754;1562328528;652403;-0.3985169;-0.06064137;-9.817318;
1562328533;85807;1562328533;85822;1562328528;657403;-0.4100499;-0.05429003;-9.804449;
1562328533;85872;1562328533;85887;1562328528;662403;-0.4140923;-0.04955421;-9.816098;
1562328533;85937;1562328533;85952;1562328528;667403;-0.4073327;-0.0451451;-9.803438;
1562328533;86001;1562328533;86016;1562328528;672403;-0.4053421;-0.05132299;-9.792742;
1562328533;86165;1562328533;86178;1562328528;677403;-0.4111167;-0.05867983;-9.802296;
1562328533;129511;1562328533;129523;1562328528;682403;-0.4046308;-0.06426177;-9.812285;
1562328533;129563;1562328533;129575;1562328528;687403;-0.3937569;-0.06910276;-9.800454;
1562328533;129613;1562328533;129625;1562328528;692403;-0.3978089;-0.05573126;-9.789843;
1562328533;171912;1562328533;171921;1562328528;697403;-0.4043144;-0.08110446;-9.799553;
1562328533;171949;1562328533;171957;1562328528;702403;-0.404008;-0.06420497;-9.800443;
1562328533;171986;1562328533;171994;1562328528;707403;-0.3947735;-0.06485026;-9.80049;
1562328533;172020;1562328533;172027;1562328528;712403;-0.4074821;-0.05013818;-9.796787;
1562328533;172055;1562328533;172063;1562328528;717403;-0.4151881;-0.04384775;-9.809218;
1562328533;172090;1562328533;172098;1562328528;722403;-0.4058242;-0.05405613;-9.807552;
1562328533;215451;1562328533;215465;1562328528;727403;-0.3971654;-0.04455681;-9.794796;
1562328533;215504;1562328533;215517;1562328528;732403;-0.3873062;-0.03766096;-9.809034;
1562328533;215560;1562328533;215573;1562328528;737403;-0.3859214;-0.04309227;-9.81212;
1562328533;257898;1562328533;257911;1562328528;742403;-0.4025788;-0.04948172;-9.800071;
1562328533;257951;1562328533;257963;1562328528;747403;-0.4032457;-0.03316139;-9.800826;
1562328533;258000;1562328533;258019;1562328528;752403;-0.3899625;-0.03146093;-9.796398;
1562328533;258063;1562328533;258076;1562328528;757403;-0.4040939;-0.04116981;-9.79361;
1562328533;258113;1562328533;258125;1562328528;762403;-0.4028451;-0.03292571;-9.805042;
1562328533;301537;1562328533;301551;1562328528;767403;-0.4041538;-0.04795592;-9.80346;
1562328533;301590;1562328533;301603;1562328528;772403;-0.4083471;-0.04386149;-9.804236;
1562328533;301645;1562328533;301658;1562328528;777403;-0.4115746;-0.03995339;-9.796624;
1562328533;301695;1562328533;301707;1562328528;782403;-0.4083982;-0.04658017;-9.794986;
1562328533;344086;1562328533;344102;1562328528;787403;-0.4150956;-0.05852419;-9.799625;
1562328533;344143;1562328533;344157;1562328528;792403;-0.4066717;-0.06336956;-9.802707;
1562328533;344197;1562328533;344210;1562328528;797403;-0.4095671;-0.08872727;-9.804906;
1562328533;344247;1562328533;344259;1562328528;802403;-0.396999;-0.07480839;-9.794644;
1562328533;344298;1562328533;344310;1562328528;807403;-0.3963976;-0.06030824;-9.797298;
1562328533;344348;1562328533;344363;1562328528;812403;-0.4008828;-0.05698144;-9.80249;
1562328533;387803;1562328533;387817;1562328528;817403;-0.4105839;-0.06022169;-9.801073;
1562328533;387860;1562328533;387872;1562328528;822403;-0.411968;-0.05148442;-9.804919;
1562328533;387910;1562328533;387922;1562328528;827403;-0.4054047;-0.03059164;-9.80278;
1562328533;387960;1562328533;387971;1562328528;832403;-0.4119544;-0.03853231;-9.806626;
1562328533;430330;1562328533;430345;1562328528;837403;-0.3992119;-0.05500839;-9.809155;
1562328533;430396;1562328533;430413;1562328528;842403;-0.3950724;-0.05012698;-9.808322;
1562328533;430460;1562328533;430487;1562328528;847403;-0.3964031;-0.0454946;-9.798578;
1562328533;430534;1562328533;430552;1562328528;852403;-0.3937211;-0.03591268;-9.796873;
1562328533;473877;1562328533;473887;1562328528;857403;-0.4015684;-0.0432162;-9.808496;
1562328533;473915;1562328533;473925;1562328528;862403;-0.4056066;-0.05176456;-9.801824;
1562328533;473956;1562328533;473966;1562328528;867403;-0.400265;-0.06545447;-9.793871;
1562328533;473995;1562328533;474006;1562328528;872403;-0.4049694;-0.05171189;-9.802274;
1562328533;474035;1562328533;474045;1562328528;877403;-0.4060805;-0.0327104;-9.791312;
1562328533;516360;1562328533;516374;1562328528;882403;-0.4001735;-0.05690197;-9.796751;
1562328533;516433;1562328533;516453;1562328528;887403;-0.3968301;-0.05515256;-9.795323;
1562328533;516525;1562328533;516546;1562328528;892403;-0.4041493;-0.05506371;-9.807934;
1562328533;516618;1562328533;516649;1562328528;897403;-0.4139392;-0.05929151;-9.81066;
1562328533;560070;1562328533;560084;1562328528;902403;-0.4116062;-0.06350365;-9.812713;
1562328533;560148;1562328533;560168;1562328528;907403;-0.4079508;-0.05322784;-9.805485;
1562328533;560231;1562328533;560252;1562328528;912403;-0.4066312;-0.04717163;-9.811862;
1562328533;560327;1562328533;560348;1562328528;917403;-0.4103503;-0.05467082;-9.821673;
1562328533;560410;1562328533;560431;1562328528;922403;-0.4078963;-0.05433001;-9.808302;
1562328533;560533;1562328533;560554;1562328528;927403;-0.4082811;-0.04261746;-9.801264;
1562328533;602907;1562328533;602920;1562328528;932403;-0.4093913;-0.03606267;-9.795422;
1562328533;602992;1562328533;603013;1562328528;937403;-0.400829;-0.05014352;-9.799312;
1562328533;645392;1562328533;645407;1562328528;942403;-0.4061292;-0.06085364;-9.796157;
1562328533;645461;1562328533;645477;1562328528;947403;-0.3997165;-0.06553345;-9.790077;
1562328533;645528;1562328533;645544;1562328528;952403;-0.4027475;-0.05297571;-9.804752;
1562328533;645597;1562328533;645613;1562328528;957403;-0.3990283;-0.06132198;-9.794524;
1562328533;645664;1562328533;645679;1562328528;962403;-0.392262;-0.05939153;-9.786881;
1562328533;645731;1562328533;645747;1562328528;967403;-0.3970231;-0.0594083;-9.785085;
1562328533;689122;1562328533;689133;1562328528;972403;-0.3992076;-0.05434339;-9.799834;
1562328533;689174;1562328533;689186;1562328528;977403;-0.4027431;-0.05043275;-9.802809;
1562328533;689224;1562328533;689235;1562328528;982403;-0.4003187;-0.04818945;-9.808605;
1562328533;689273;1562328533;689285;1562328528;987403;-0.4023217;-0.04733304;-9.819926;
1562328533;689323;1562328533;689334;1562328528;992403;-0.4047386;-0.04790542;-9.807226;
1562328533;689373;1562328533;689384;1562328528;997403;-0.4151455;-0.04662632;-9.803507;
1562328533;731692;1562328533;731708;1562328529;2403;-0.4081295;-0.05967896;-9.798445;
1562328533;731762;1562328533;731778;1562328529;7403;-0.3919576;-0.05322547;-9.792336;
1562328533;731830;1562328533;731847;1562328529;12403;-0.4008054;-0.06099224;-9.805691;
1562328533;731904;1562328533;731920;1562328529;17403;-0.4057224;-0.07177135;-9.798897;
1562328533;775282;1562328533;775300;1562328529;22403;-0.4082597;-0.05143496;-9.783549;
1562328533;775359;1562328533;775376;1562328529;27403;-0.4039911;-0.05102257;-9.795437;
1562328533;775429;1562328533;775445;1562328529;32403;-0.3994505;-0.05262001;-9.79917;
1562328533;775498;1562328533;775515;1562328529;37403;-0.3963937;-0.06960323;-9.795252;
1562328533;775569;1562328533;775586;1562328529;42403;-0.4041441;-0.06580667;-9.784509;
1562328533;775636;1562328533;775652;1562328529;47403;-0.3960468;-0.05355744;-9.781475;
1562328533;817995;1562328533;818012;1562328529;52403;-0.4121238;-0.03836873;-9.81084;
1562328533;818066;1562328533;818081;1562328529;57403;-0.410193;-0.03756621;-9.815377;
1562328533;818124;1562328533;818138;1562328529;62403;-0.4026691;-0.03908511;-9.815484;
1562328533;818182;1562328533;818196;1562328529;67403;-0.3998673;-0.03662779;-9.82235;
1562328533;818238;1562328533;818252;1562328529;72403;-0.3898175;-0.05435548;-9.826462;
1562328533;860595;1562328533;860608;1562328529;77403;-0.3904095;-0.05811993;-9.813278;
1562328533;860647;1562328533;860660;1562328529;82403;-0.3953263;-0.06096669;-9.812582;
1562328533;860704;1562328533;860716;1562328529;87403;-0.396588;-0.06411851;-9.801443;
1562328533;860753;1562328533;860766;1562328529;92403;-0.4042479;-0.07061922;-9.804911;
1562328533;904152;1562328533;904174;1562328529;97403;-0.4019313;-0.07814065;-9.801776;
1562328533;904230;1562328533;904246;1562328529;102403;-0.396688;-0.07583316;-9.794472;
1562328533;904299;1562328533;904316;1562328529;107403;-0.4067023;-0.07798853;-9.804214;
1562328533;904368;1562328533;904387;1562328529;112403;-0.4149914;-0.06772004;-9.801595;
1562328533;904444;1562328533;904458;1562328529;117403;-0.4200366;-0.07394797;-9.795659;
1562328533;904496;1562328533;904509;1562328529;122403;-0.3965326;-0.07605137;-9.791512;
1562328533;946849;1562328533;946863;1562328529;127403;-0.4104695;-0.06611136;-9.796885;
1562328533;946903;1562328533;946915;1562328529;132403;-0.4061503;-0.04496927;-9.801084;
1562328533;946954;1562328533;946966;1562328529;137403;-0.4039606;-0.05018726;-9.79528;
1562328533;947003;1562328533;947016;1562328529;142403;-0.4095725;-0.04779309;-9.799176;
1562328533;990426;1562328533;990439;1562328529;147403;-0.4022427;-0.04127813;-9.799259;
1562328533;990497;1562328533;990511;1562328529;152403;-0.4098189;-0.04359077;-9.806999;
1562328533;990559;1562328533;990572;1562328529;157403;-0.4045479;-0.03457293;-9.81486;
1562328533;990612;1562328533;990624;1562328529;162403;-0.4045271;-0.0382686;-9.816741;
1562328534;32965;1562328534;32984;1562328529;167403;-0.3965888;-0.0378507;-9.813628;
1562328534;33046;1562328534;33065;1562328529;172403;-0.4066378;-0.04012432;-9.803763;
1562328534;33130;1562328534;33147;1562328529;177403;-0.4087327;-0.03697229;-9.801247;
1562328534;33199;1562328534;33217;1562328529;182403;-0.4013534;-0.03677921;-9.812067;
1562328534;33270;1562328534;33288;1562328529;187403;-0.3997371;-0.05001887;-9.802169;
1562328534;33340;1562328534;33357;1562328529;192403;-0.3794394;-0.04782348;-9.802591;
1562328534;75596;1562328534;75607;1562328529;197403;-0.3979733;-0.04521432;-9.799692;
1562328534;75644;1562328534;75656;1562328529;202403;-0.4081216;-0.05259199;-9.807074;
1562328534;75694;1562328534;75705;1562328529;207403;-0.4038917;-0.05949303;-9.798671;
1562328534;119078;1562328534;119096;1562328529;212403;-0.4157143;-0.06404199;-9.797595;
1562328534;119162;1562328534;119181;1562328529;217403;-0.4094683;-0.06092899;-9.794298;
1562328534;119233;1562328534;119251;1562328529;222403;-0.3882929;-0.05475033;-9.785921;
1562328534;119312;1562328534;119330;1562328529;227403;-0.4034047;-0.05390614;-9.8027;
1562328534;119382;1562328534;119401;1562328529;232403;-0.4125461;-0.070814;-9.802146;
1562328534;161768;1562328534;161785;1562328529;237403;-0.3892354;-0.06939204;-9.806004;
1562328534;161860;1562328534;161879;1562328529;242403;-0.3956899;-0.05330621;-9.808445;
1562328534;161937;1562328534;161956;1562328529;247403;-0.4013563;-0.03834248;-9.815483;
1562328534;162007;1562328534;162025;1562328529;252403;-0.406732;-0.03689973;-9.815281;
1562328534;205426;1562328534;205445;1562328529;257403;-0.4103447;-0.06585408;-9.812593;
1562328534;205501;1562328534;205517;1562328529;262403;-0.4009442;-0.05640266;-9.818963;
1562328534;205572;1562328534;205588;1562328529;267403;-0.4129689;-0.05523099;-9.81517;
1562328534;205640;1562328534;205655;1562328529;272403;-0.4175524;-0.05726366;-9.815992;
1562328534;205720;1562328534;205736;1562328529;277403;-0.4172985;-0.06977347;-9.799337;
1562328534;248102;1562328534;248116;1562328529;282403;-0.4154494;-0.06369913;-9.798093;
1562328534;248175;1562328534;248191;1562328529;287403;-0.4091409;-0.05739558;-9.795857;
1562328534;248242;1562328534;248258;1562328529;292403;-0.4145721;-0.05440374;-9.8011;
1562328534;248319;1562328534;248335;1562328529;297403;-0.4138369;-0.06613158;-9.789189;
1562328534;291710;1562328534;291726;1562328529;302403;-0.4069632;-0.04444904;-9.78963;
1562328534;291779;1562328534;291795;1562328529;307403;-0.4117204;-0.03750668;-9.794346;
1562328534;291847;1562328534;291863;1562328529;312403;-0.4058985;-0.05488653;-9.792139;
1562328534;291916;1562328534;291939;1562328529;317403;-0.4056171;-0.04754154;-9.800575;
1562328534;291991;1562328534;292007;1562328529;322403;-0.401939;-0.04678088;-9.79519;
1562328534;334337;1562328534;334353;1562328529;327403;-0.4057011;-0.05118449;-9.800034;
1562328534;334413;1562328534;334437;1562328529;332403;-0.4035607;-0.04764402;-9.807602;
1562328534;334499;1562328534;334517;1562328529;337403;-0.4041263;-0.04875219;-9.811958;
1562328534;334572;1562328534;334592;1562328529;342403;-0.3928131;-0.03725085;-9.80974;
1562328534;334648;1562328534;334664;1562328529;347403;-0.3910929;-0.04092648;-9.802419;
1562328534;377029;1562328534;377045;1562328529;352403;-0.3996257;-0.04617482;-9.799366;
1562328534;377097;1562328534;377114;1562328529;357403;-0.4110093;-0.05383536;-9.796274;
1562328534;377181;1562328534;377197;1562328529;362403;-0.4067388;-0.05034821;-9.811709;
1562328534;420589;1562328534;420604;1562328529;367403;-0.4129787;-0.04319822;-9.811729;
1562328534;420657;1562328534;420673;1562328529;372403;-0.4027761;-0.04734002;-9.805799;
1562328534;420726;1562328534;420742;1562328529;377403;-0.3949952;-0.05116614;-9.805627;
1562328534;420793;1562328534;420818;1562328529;382403;-0.3849609;-0.0708307;-9.798072;
1562328534;420871;1562328534;420887;1562328529;387403;-0.3917817;-0.04712306;-9.806165;
1562328534;420947;1562328534;420963;1562328529;392403;-0.3934981;-0.04098667;-9.793172;
1562328534;421015;1562328534;421030;1562328529;397403;-0.3900238;-0.03804702;-9.805005;
1562328534;463354;1562328534;463369;1562328529;402403;-0.3892066;-0.05056432;-9.806487;
1562328534;463423;1562328534;463446;1562328529;407403;-0.3989654;-0.0535378;-9.804901;
1562328534;463500;1562328534;463515;1562328529;412403;-0.3983398;-0.05578668;-9.783248;
1562328534;463567;1562328534;463583;1562328529;417403;-0.396297;-0.04671028;-9.807117;
1562328534;463637;1562328534;463653;1562328529;422403;-0.4100374;-0.05056326;-9.801465;
1562328534;505985;1562328534;505999;1562328529;427403;-0.4168582;-0.0451328;-9.818131;
1562328534;506052;1562328534;506068;1562328529;432403;-0.4112089;-0.06486764;-9.807108;
1562328534;506120;1562328534;506135;1562328529;437403;-0.4124572;-0.03569681;-9.803362;
1562328534;506196;1562328534;506210;1562328529;442403;-0.4130968;-0.03416865;-9.818237;
1562328534;506261;1562328534;506276;1562328529;447403;-0.3957286;-0.05379496;-9.817392;
1562328534;506328;1562328534;506343;1562328529;452403;-0.3941976;-0.05393588;-9.813228;
1562328534;549740;1562328534;549754;1562328529;457403;-0.3943205;-0.04024308;-9.803382;
1562328534;549816;1562328534;549830;1562328529;462403;-0.3970552;-0.03400281;-9.809049;
1562328534;549884;1562328534;549899;1562328529;467403;-0.4004174;-0.04131085;-9.802063;
1562328534;549957;1562328534;549973;1562328529;472403;-0.3830959;-0.04790443;-9.80307;
1562328534;592314;1562328534;592328;1562328529;477403;-0.3985599;-0.0409969;-9.794088;
1562328534;592381;1562328534;592397;1562328529;482403;-0.3883525;-0.04909826;-9.796847;
1562328534;592457;1562328534;592473;1562328529;487403;-0.3854702;-0.045553;-9.799587;
1562328534;592527;1562328534;592542;1562328529;492403;-0.4010397;-0.05849402;-9.780671;
1562328534;592595;1562328534;592610;1562328529;497403;-0.395301;-0.05696649;-9.790345;
1562328534;635996;1562328534;636010;1562328529;502403;-0.394836;-0.06182858;-9.786009;
1562328534;636064;1562328534;636079;1562328529;507403;-0.3961902;-0.05436526;-9.779289;
1562328534;636138;1562328534;636154;1562328529;512403;-0.3910866;-0.05231692;-9.789572;
1562328534;636214;1562328534;636230;1562328529;517403;-0.394045;-0.06533541;-9.804049;
1562328534;678580;1562328534;678595;1562328529;522403;-0.3994166;-0.0556222;-9.808468;
1562328534;678648;1562328534;678663;1562328529;527403;-0.4009104;-0.06112715;-9.798646;
1562328534;678719;1562328534;678735;1562328529;532403;-0.4068096;-0.05405459;-9.801787;
1562328534;678788;1562328534;678803;1562328529;537403;-0.4084659;-0.0472187;-9.803182;
1562328534;678856;1562328534;678872;1562328529;542403;-0.4084065;-0.04494785;-9.799673;
1562328534;721214;1562328534;721229;1562328529;547403;-0.4143912;-0.04408642;-9.801694;
1562328534;721288;1562328534;721304;1562328529;552403;-0.4085415;-0.05897456;-9.801175;
1562328534;721363;1562328534;721379;1562328529;557403;-0.4067547;-0.05140802;-9.805173;
1562328534;721432;1562328534;721449;1562328529;562403;-0.4147764;-0.04286725;-9.803242;
1562328534;764842;1562328534;764855;1562328529;567403;-0.4245755;-0.04576412;-9.819905;
1562328534;764895;1562328534;764907;1562328529;572403;-0.4130014;-0.05239672;-9.816148;
1562328534;764944;1562328534;764956;1562328529;577403;-0.4224802;-0.05060732;-9.81906;
1562328534;764993;1562328534;765005;1562328529;582403;-0.4189036;-0.05378962;-9.817317;
1562328534;765042;1562328534;765054;1562328529;587403;-0.4164022;-0.06077516;-9.819585;
1562328534;807395;1562328534;807410;1562328529;592403;-0.4101147;-0.0269808;-9.812662;
1562328534;807463;1562328534;807479;1562328529;597403;-0.4049866;-0.04687797;-9.809557;
1562328534;807531;1562328534;807547;1562328529;602403;-0.4296794;-0.05740473;-9.808205;
1562328534;807599;1562328534;807615;1562328529;607403;-0.4115267;-0.06106215;-9.797075;
1562328534;807667;1562328534;807683;1562328529;612403;-0.4005103;-0.06133941;-9.791436;
1562328534;851116;1562328534;851130;1562328529;617403;-0.406245;-0.0477863;-9.796431;
1562328534;851185;1562328534;851201;1562328529;622403;-0.4005545;-0.04838535;-9.783229;
1562328534;851252;1562328534;851268;1562328529;627403;-0.4068278;-0.04986655;-9.775434;
1562328534;893618;1562328534;893631;1562328529;632403;-0.390521;-0.04299708;-9.777626;
1562328534;893687;1562328534;893706;1562328529;637403;-0.4006632;-0.05635871;-9.783181;
1562328534;893759;1562328534;893782;1562328529;642403;-0.3959255;-0.05234009;-9.791239;
1562328534;893931;1562328534;893946;1562328529;647403;-0.3835314;-0.05162342;-9.781942;
1562328534;894000;1562328534;894016;1562328529;652403;-0.3856358;-0.05020358;-9.799566;
1562328534;894067;1562328534;894083;1562328529;657403;-0.3978107;-0.04596908;-9.811974;
1562328534;936423;1562328534;936436;1562328529;662403;-0.4033251;-0.04764048;-9.822043;
1562328534;936476;1562328534;936488;1562328529;667403;-0.3932371;-0.05810352;-9.807612;
1562328534;936530;1562328534;936542;1562328529;672403;-0.4011578;-0.06012892;-9.810647;
1562328534;979951;1562328534;979964;1562328529;677403;-0.3981363;-0.04559512;-9.820564;
1562328534;980005;1562328534;980017;1562328529;682403;-0.3967903;-0.05555697;-9.818793;
1562328534;980055;1562328534;980067;1562328529;687403;-0.3988712;-0.06170992;-9.80644;
1562328534;980105;1562328534;980117;1562328529;692403;-0.4028463;-0.05233294;-9.806824;
1562328534;980154;1562328534;980166;1562328529;697403;-0.4154253;-0.05240934;-9.806736;
1562328534;980204;1562328534;980217;1562328529;702403;-0.4013756;-0.04158999;-9.808354;
1562328535;22515;1562328535;22533;1562328529;707403;-0.4172429;-0.04562278;-9.793637;
1562328535;22592;1562328535;22610;1562328529;712403;-0.4146378;-0.05743999;-9.788339;
1562328535;22664;1562328535;22682;1562328529;717403;-0.4191687;-0.04740036;-9.802258;
1562328535;22737;1562328535;22755;1562328529;722403;-0.4229608;-0.04214271;-9.808034;
1562328535;66120;1562328535;66138;1562328529;727403;-0.4041537;-0.07195954;-9.801915;
1562328535;66204;1562328535;66223;1562328529;732403;-0.4081398;-0.07115434;-9.80598;
1562328535;66274;1562328535;66293;1562328529;737403;-0.4080973;-0.06023218;-9.815639;
1562328535;66346;1562328535;66364;1562328529;742403;-0.4147383;-0.05642497;-9.815474;
1562328535;66415;1562328535;66433;1562328529;747403;-0.4035153;-0.04428711;-9.820662;
1562328535;108754;1562328535;108773;1562328529;752403;-0.4079008;-0.03973698;-9.815656;
1562328535;108829;1562328535;108847;1562328529;757403;-0.4193777;-0.03462265;-9.815148;
1562328535;108903;1562328535;108920;1562328529;762403;-0.4118984;-0.03688463;-9.825521;
1562328535;108974;1562328535;108992;1562328529;767403;-0.4146473;-0.03806337;-9.809006;
1562328535;152388;1562328535;152406;1562328529;772403;-0.3988703;-0.03461428;-9.801202;
1562328535;152474;1562328535;152492;1562328529;777403;-0.4026386;-0.0586991;-9.812702;
1562328535;152545;1562328535;152563;1562328529;782403;-0.4112936;-0.03862461;-9.805535;
1562328535;152614;1562328535;152632;1562328529;787403;-0.3958079;-0.04766572;-9.788443;
1562328535;152684;1562328535;152701;1562328529;792403;-0.3998969;-0.04106968;-9.792774;
1562328535;152752;1562328535;152770;1562328529;797403;-0.3939221;-0.04438476;-9.791973;
1562328535;152821;1562328535;152839;1562328529;802403;-0.3901486;-0.05334121;-9.786448;
1562328535;195164;1562328535;195182;1562328529;807403;-0.4092434;-0.06463123;-9.815262;
1562328535;195246;1562328535;195264;1562328529;812403;-0.4157877;-0.06456859;-9.812627;
1562328535;195318;1562328535;195336;1562328529;817403;-0.4181382;-0.06298663;-9.807511;
1562328535;195388;1562328535;195406;1562328529;822403;-0.411993;-0.07346822;-9.797184;
1562328535;195459;1562328535;195477;1562328529;827403;-0.4111041;-0.07177619;-9.803305;
1562328535;195528;1562328535;195546;1562328529;832403;-0.4108384;-0.0671472;-9.790369;
1562328535;237873;1562328535;237893;1562328529;837403;-0.4047118;-0.05724376;-9.78557;
1562328535;237948;1562328535;237966;1562328529;842403;-0.4150272;-0.05306136;-9.777568;
1562328535;238023;1562328535;238042;1562328529;847403;-0.3995296;-0.05379374;-9.788357;
1562328535;281392;1562328535;281402;1562328529;852403;-0.4021256;-0.0633479;-9.781902;
1562328535;281433;1562328535;281445;1562328529;857403;-0.3998148;-0.06689481;-9.792487;
1562328535;281478;1562328535;281489;1562328529;862403;-0.4018882;-0.07194811;-9.793937;
1562328535;281521;1562328535;281532;1562328529;867403;-0.4229354;-0.07090379;-9.794591;
1562328535;281563;1562328535;281574;1562328529;872403;-0.4039549;-0.05363416;-9.793179;
1562328535;323895;1562328535;323913;1562328529;877403;-0.3900516;-0.04544979;-9.794028;
1562328535;323981;1562328535;324000;1562328529;882403;-0.4114275;-0.03996712;-9.795671;
1562328535;324057;1562328535;324075;1562328529;887403;-0.408584;-0.05024295;-9.809911;
1562328535;324126;1562328535;324144;1562328529;892403;-0.4037427;-0.03439882;-9.804989;
1562328535;367591;1562328535;367611;1562328529;897403;-0.3985569;-0.04470599;-9.804519;
1562328535;367665;1562328535;367683;1562328529;902403;-0.4012517;-0.04037695;-9.816464;
1562328535;367736;1562328535;367755;1562328529;907403;-0.3956437;-0.03963403;-9.807624;
1562328535;367805;1562328535;367824;1562328529;912403;-0.3944569;-0.03974026;-9.807081;
1562328535;367884;1562328535;367901;1562328529;917403;-0.3989165;-0.04105628;-9.804117;
1562328535;410266;1562328535;410285;1562328529;922403;-0.4013235;-0.0468794;-9.8116;
1562328535;410347;1562328535;410366;1562328529;927403;-0.3991944;-0.05372522;-9.798503;
1562328535;410416;1562328535;410434;1562328529;932403;-0.3952655;-0.06077953;-9.806814;
1562328535;410498;1562328535;410517;1562328529;937403;-0.3939161;-0.05024317;-9.786686;
1562328535;453922;1562328535;453940;1562328529;942403;-0.393365;-0.04085167;-9.800049;
1562328535;454006;1562328535;454024;1562328529;947403;-0.4096305;-0.04505209;-9.793571;
1562328535;454075;1562328535;454093;1562328529;952403;-0.395607;-0.06187653;-9.786405;
1562328535;454145;1562328535;454163;1562328529;957403;-0.3880436;-0.06228444;-9.783168;
1562328535;454222;1562328535;454238;1562328529;962403;-0.4040242;-0.04927424;-9.800499;
1562328535;496611;1562328535;496629;1562328529;967403;-0.4088573;-0.05939595;-9.804132;
1562328535;496783;1562328535;496801;1562328529;972403;-0.4028575;-0.06151536;-9.7995;
1562328535;496859;1562328535;496876;1562328529;977403;-0.4039329;-0.05269162;-9.804703;
1562328535;496929;1562328535;496947;1562328529;982403;-0.4049131;-0.05376202;-9.807128;
1562328535;497001;1562328535;497019;1562328529;987403;-0.3991254;-0.05936465;-9.808193;
1562328535;539360;1562328535;539374;1562328529;992403;-0.3912618;-0.05527405;-9.813477;
1562328535;539431;1562328535;539450;1562328529;997403;-0.4011948;-0.05777327;-9.807331;
1562328535;539502;1562328535;539520;1562328530;2403;-0.4057976;-0.05386644;-9.808038;
1562328535;582912;1562328535;582925;1562328530;7403;-0.4114613;-0.05626046;-9.806863;
1562328535;582964;1562328535;582976;1562328530;12403;-0.3972292;-0.05263086;-9.796545;
1562328535;583018;1562328535;583030;1562328530;17403;-0.4010547;-0.06136814;-9.805692;
1562328535;583066;1562328535;583078;1562328530;22403;-0.4100743;-0.0599011;-9.815864;
1562328535;583116;1562328535;583128;1562328530;27403;-0.4174618;-0.05313611;-9.815795;
1562328535;583165;1562328535;583177;1562328530;32403;-0.4017731;-0.05998663;-9.805577;
1562328535;625501;1562328535;625515;1562328530;37403;-0.4211371;-0.06552426;-9.807592;
1562328535;625570;1562328535;625589;1562328530;42403;-0.4130702;-0.05147424;-9.810844;
1562328535;625652;1562328535;625671;1562328530;47403;-0.4109177;-0.07398871;-9.802695;
1562328535;625725;1562328535;625743;1562328530;52403;-0.4102668;-0.08458872;-9.801041;
1562328535;668087;1562328535;668101;1562328530;57403;-0.4210385;-0.04087524;-9.802547;
1562328535;668171;1562328535;668189;1562328530;62403;-0.4142111;-0.04930694;-9.787823;
1562328535;668243;1562328535;668260;1562328530;67403;-0.4074358;-0.03870961;-9.783779;
1562328535;711650;1562328535;711669;1562328530;72403;-0.3995187;-0.01720737;-9.771576;
1562328535;711724;1562328535;711742;1562328530;77403;-0.4081527;-0.008262729;-9.77878;
1562328535;711796;1562328535;711814;1562328530;82403;-0.4121602;-0.01264198;-9.771831;
1562328535;711866;1562328535;711885;1562328530;87403;-0.399839;-0.02464002;-9.779719;
1562328535;711939;1562328535;711958;1562328530;92403;-0.404516;-0.0330025;-9.776588;
1562328535;712008;1562328535;712027;1562328530;97403;-0.4029376;-0.02173871;-9.793977;
1562328535;754344;1562328535;754366;1562328530;102403;-0.4118537;-0.01151207;-9.784934;
1562328535;754414;1562328535;754428;1562328530;107403;-0.3929013;-0.0274407;-9.788105;
1562328535;754481;1562328535;754495;1562328530;112403;-0.4033746;-0.02938625;-9.797463;
1562328535;754541;1562328535;754554;1562328530;117403;-0.4100213;-0.03067924;-9.807636;
1562328535;797914;1562328535;797927;1562328530;122403;-0.4123952;-0.03177192;-9.814144;
1562328535;797972;1562328535;797984;1562328530;127403;-0.4026901;-0.04652974;-9.818728;
1562328535;798022;1562328535;798034;1562328530;132403;-0.412257;-0.04122108;-9.816543;
1562328535;798071;1562328535;798083;1562328530;137403;-0.4129914;-0.0484544;-9.819927;
1562328535;798121;1562328535;798133;1562328530;142403;-0.4067494;-0.05714817;-9.835829;
1562328535;798170;1562328535;798182;1562328530;147403;-0.3977694;-0.07344419;-9.817527;
1562328535;840423;1562328535;840431;1562328530;152403;-0.3893552;-0.06330034;-9.80558;
1562328535;840455;1562328535;840462;1562328530;157403;-0.385638;-0.08148521;-9.805397;
1562328535;840503;1562328535;840511;1562328530;162403;-0.3863046;-0.08770434;-9.801987;
1562328535;840533;1562328535;840540;1562328530;167403;-0.3904821;-0.08798747;-9.798086;
1562328535;883948;1562328535;883961;1562328530;172403;-0.3774264;-0.07582677;-9.794245;
1562328535;884001;1562328535;884013;1562328530;177403;-0.3938178;-0.07705437;-9.789418;
1562328535;884052;1562328535;884064;1562328530;182403;-0.4004679;-0.08246291;-9.778982;
1562328535;884101;1562328535;884113;1562328530;187403;-0.3942716;-0.08276047;-9.769968;
1562328535;926399;1562328535;926409;1562328530;192403;-0.3978295;-0.07390698;-9.767277;
1562328535;926436;1562328535;926445;1562328530;197403;-0.4076037;-0.06072288;-9.774373;
1562328535;926474;1562328535;926482;1562328530;202403;-0.3931271;-0.06726285;-9.776557;
1562328535;926510;1562328535;926519;1562328530;207403;-0.4037311;-0.05567634;-9.794183;
1562328535;926547;1562328535;926556;1562328530;212403;-0.4073172;-0.04289505;-9.792658;
1562328535;969921;1562328535;969934;1562328530;217403;-0.4081393;-0.03049205;-9.814288;
1562328535;969973;1562328535;969986;1562328530;222403;-0.4065081;-0.03990569;-9.810461;
1562328535;970023;1562328535;970035;1562328530;227403;-0.4102575;-0.0418997;-9.81738;
1562328535;970078;1562328535;970090;1562328530;232403;-0.4095544;-0.04352084;-9.818399;
1562328536;12447;1562328536;12460;1562328530;237403;-0.4176161;-0.05539077;-9.821549;
1562328536;12499;1562328536;12511;1562328530;242403;-0.4170704;-0.05571684;-9.820595;
1562328536;12548;1562328536;12561;1562328530;247403;-0.4183513;-0.04001951;-9.82095;
1562328536;12599;1562328536;12612;1562328530;252403;-0.4183635;-0.03130614;-9.813376;
1562328536;56018;1562328536;56031;1562328530;257403;-0.4184201;-0.04110637;-9.820367;
1562328536;56072;1562328536;56084;1562328530;262403;-0.4133529;-0.04232336;-9.811175;
1562328536;56127;1562328536;56140;1562328530;267403;-0.405657;-0.02810128;-9.797318;
1562328536;56185;1562328536;56197;1562328530;272403;-0.4093045;-0.0398572;-9.806124;
1562328536;98550;1562328536;98563;1562328530;277403;-0.4147741;-0.03443461;-9.793881;
1562328536;98604;1562328536;98620;1562328530;282403;-0.4290948;-0.04551182;-9.787883;
1562328536;98662;1562328536;98675;1562328530;287403;-0.4154342;-0.02807357;-9.780552;
1562328536;98713;1562328536;98725;1562328530;292403;-0.4050595;-0.04877913;-9.788964;
1562328536;98762;1562328536;98775;1562328530;297403;-0.4035236;-0.05769144;-9.78822;
1562328536;98811;1562328536;98823;1562328530;302403;-0.4071332;-0.06040446;-9.782693;
1562328536;98860;1562328536;98878;1562328530;307403;-0.3895723;-0.07436138;-9.782673;
1562328536;142250;1562328536;142261;1562328530;312403;-0.3929638;-0.07307772;-9.777375;
1562328536;142300;1562328536;142311;1562328530;317403;-0.3931457;-0.08789094;-9.785347;
1562328536;142347;1562328536;142358;1562328530;322403;-0.3928914;-0.09104089;-9.786807;
1562328536;142402;1562328536;142413;1562328530;327403;-0.3959708;-0.09114667;-9.786508;
1562328536;184779;1562328536;184794;1562328530;332403;-0.4041878;-0.07991917;-9.789419;
1562328536;184849;1562328536;184865;1562328530;337403;-0.4064063;-0.0693544;-9.794055;
1562328536;184917;1562328536;184932;1562328530;342403;-0.3932139;-0.05429481;-9.795365;
1562328536;184985;1562328536;185005;1562328530;347403;-0.4125532;-0.05350204;-9.797549;
1562328536;228334;1562328536;228344;1562328530;352403;-0.4000015;-0.04439444;-9.818662;
1562328536;228384;1562328536;228396;1562328530;357403;-0.4074733;-0.04769446;-9.81018;
1562328536;228433;1562328536;228445;1562328530;362403;-0.4052952;-0.02940685;-9.801147;
1562328536;228485;1562328536;228498;1562328530;367403;-0.4105015;-0.04233195;-9.794098;
1562328536;270726;1562328536;270739;1562328530;372403;-0.410561;-0.0432962;-9.804236;
1562328536;270789;1562328536;270802;1562328530;377403;-0.3991617;-0.05394457;-9.799596;
1562328536;270838;1562328536;270850;1562328530;382403;-0.4033322;-0.04385981;-9.806624;
1562328536;270887;1562328536;270899;1562328530;387403;-0.4144824;-0.03497339;-9.800288;
1562328536;270935;1562328536;270947;1562328530;392403;-0.417601;-0.0292106;-9.802045;
1562328536;270983;1562328536;270995;1562328530;397403;-0.4165768;-0.02477193;-9.811934;
1562328536;314351;1562328536;314360;1562328530;402403;-0.401844;-0.03006599;-9.815385;
1562328536;314384;1562328536;314393;1562328530;407403;-0.4135819;-0.03427685;-9.802958;
1562328536;314416;1562328536;314423;1562328530;412403;-0.4109975;-0.03452995;-9.802099;
1562328536;356734;1562328536;356747;1562328530;417403;-0.4012574;-0.07213024;-9.814353;
1562328536;356804;1562328536;356817;1562328530;422403;-0.3905166;-0.06791123;-9.813973;
1562328536;356856;1562328536;356869;1562328530;427403;-0.3947888;-0.06916737;-9.818081;
